,row_id,series_id,measurement_number,orientation_X,orientation_Y,orientation_Z,orientation_W,angular_velocity_X,angular_velocity_Y,angular_velocity_Z,linear_acceleration_X,linear_acceleration_Y,linear_acceleration_Z
0,0_0,0,0,0.0,0.0,-0.8648010892219999,0.5021146045279999,0.0,0.0,0.0,0.0,0.0,0.0
1,0_1,0,1,0.0,0.0,-0.8648010892219999,0.5021146045279999,0.0,0.0,0.0,0.0,0.0,0.0
2,0_2,0,2,0.0,0.0,-0.8648010892219999,0.5021146045279999,0.0,0.0,0.0,0.0,0.0,0.0
3,0_3,0,3,0.0,0.0,-0.8648010892219999,0.5021146045279999,0.0,0.0,0.0,0.0,0.0,0.0
4,0_4,0,4,0.0,0.0,-0.8648010892219999,0.5021146045279999,0.0,0.0,0.0,0.0,0.0,0.0
5,0_5,0,5,0.0,0.0,-0.8648010892219999,0.5021146045279999,0.0,0.0,0.0,0.0,0.0,0.0
6,0_6,0,6,0.0,0.0,-0.8648010892219999,0.5021146045279999,0.0,0.0,0.0,0.0,0.0,0.0
7,0_7,0,7,0.0,0.0,-0.8648010892219999,0.5021146045279999,0.0,0.0,0.0,0.0,0.0,0.0
8,0_8,0,8,0.0,0.0,-0.8648010892219999,0.5021146045279999,0.0,0.0,0.0,0.0,0.0,0.0
9,0_9,0,9,0.0,0.0,-0.8648010892219999,0.5021146045279999,0.0,0.0,0.0,0.0,0.0,0.0
10,0_10,0,10,0.0,0.0,-0.8648010892219999,0.5021146045279999,0.0,0.0,0.0,0.0,0.0,0.0
11,0_11,0,11,0.0,0.0,-0.8648010892219999,0.5021146045279999,0.0,0.0,0.0,0.0,0.0,0.0
12,0_12,0,12,0.0,0.0,-0.8648010892219999,0.5021146045279999,0.0,0.0,0.0,0.0,0.0,0.0
13,0_13,0,13,0.0,0.0,-0.8648010892219999,0.5021146045279999,0.0,0.0,0.0,0.0,0.0,0.0
14,0_14,0,14,0.0,0.0,-0.8648010892219999,0.5021146045279999,0.0,0.0,0.0,0.0,0.0,0.0
15,0_15,0,15,0.0,0.0,-0.8648010892219999,0.5021146045279999,0.0,0.0,0.0,0.0,0.0,0.0
16,0_16,0,16,0.0,0.0,-0.8648010892219999,0.5021146045279999,0.0,0.0,0.0,0.0,0.0,0.0
17,0_17,0,17,0.0,0.0,-0.8648010892219999,0.5021146045279999,0.0,0.0,0.0,0.0,0.0,0.0
18,0_18,0,18,0.0,0.0,-0.8648010892219999,0.5021146045279999,0.0,0.0,0.0,0.0,0.0,0.0
19,0_19,0,19,0.0,0.0,-0.8648010892219999,0.5021146045279999,0.0,0.0,0.0,0.0,0.0,0.0
20,0_20,0,20,0.0,0.0,-0.8648010892219999,0.5021146045279999,0.0,0.0,0.0,0.0,0.0,0.0
21,0_21,0,21,0.0,0.0,-0.8648010892219999,0.5021146045279999,0.0,0.0,0.0,0.0,0.0,0.0
22,0_22,0,22,0.0,0.0,-0.8648010892219999,0.5021146045279999,0.0,0.0,0.0,0.0,0.0,0.0
23,0_23,0,23,0.0,0.0,-0.8648010892219999,0.5021146045279999,0.0,0.0,0.0,0.0,0.0,0.0
24,0_24,0,24,0.0,0.0,-0.8648010892219999,0.5021146045279999,0.0,0.0,0.0,0.0,0.0,0.0
25,0_25,0,25,0.0,0.0,-0.8648010892219999,0.5021146045279999,0.0,0.0,0.0,0.0,0.0,0.0
26,0_26,0,26,0.0,0.0,-0.8648010892219999,0.5021146045279999,0.0,0.0,0.0005235987755980001,0.0,0.0,0.0
27,0_27,0,27,0.0,0.0,-0.8648010892219999,0.5021146045279999,0.0,0.0,-0.0010471975512,0.0,0.0,0.0
28,0_28,0,28,0.0,0.0,-0.8648010892219999,0.5021146045279999,0.0,0.0,0.0013962634016,0.0,0.0,0.0
29,0_29,0,29,0.0,0.0,-0.8655013302529999,0.500906625361,0.0,0.0,-0.0706858347058,0.0,0.0,0.0
30,0_30,0,30,0.0,0.0,-0.8656761269169999,0.500604477892,0.0,0.0,-0.030717794835099996,0.0,0.0,0.0
31,0_31,0,31,0.0,0.0,-0.8655013302529999,0.500906625361,0.0,0.0,-0.0150098315672,0.0,0.0,0.0
32,0_32,0,32,0.0,0.0,-0.866243487495,0.499622077548,0.0,0.0,-0.0151843644924,0.0,0.0,0.0
33,0_33,0,33,0.0,0.0,-0.866199883945,0.49969766965,0.0,0.0,0.0101229096616,0.0,0.0,0.0
34,0_34,0,34,0.0,0.0,-0.866199883945,0.49969766965,0.0,0.0,-0.0109955742876,0.0,0.0,0.0
35,0_35,0,35,0.0,0.0,-0.866243487495,0.499622077548,0.0,0.0,-0.004363323129989999,0.0,0.0,0.0
36,0_36,0,36,0.0,0.0,-0.866287084447,0.49954648164099996,0.0,0.0,-0.0116937059884,0.0,0.0,0.0
37,0_37,0,37,0.0,0.0,-0.866722691078,0.498790313429,0.0,0.0,-0.033684854563500004,0.0,0.0,0.0
38,0_38,0,38,0.0,0.0,-0.8668532443729999,0.498563388868,0.0,0.0,-0.0251327412287,0.0,0.0,0.0
39,0_39,0,39,0.0,0.0,-0.867027223011,0.498260769635,0.0,0.0,0.00157079632679,0.0,0.0,0.0
40,0_40,0,40,0.0,0.0,-0.8668532443729999,0.498563388868,0.0,0.0,-0.010821041362399999,0.0,0.0,0.0
41,0_41,0,41,0.0,0.0,-0.866896748936,0.498487739754,0.0,0.0,-0.0125663706144,0.0,0.0,0.0
42,0_42,0,42,0.0,0.0,-0.8672010960050001,0.49795808969099997,0.0,0.0,-0.010646508437200001,0.0,0.0,0.0
43,0_43,0,43,0.0,0.0,-0.867331431408,0.497731039913,0.0,0.0,-0.014660765716799999,0.0,0.0,0.0
44,0_44,0,44,0.0,0.0,-0.867591923867,0.49727683803000006,0.0,0.0,0.00226892802759,0.0,0.0,0.0
45,0_45,0,45,0.0,0.0,-0.867548524973,0.497352547815,0.0,0.0,-0.0050614548307799994,0.0,0.0,0.0
46,0_46,0,46,0.0,0.0,-0.867852178471,0.496822499816,0.0,0.0,-0.014137166941200001,0.0,0.0,0.0
47,0_47,0,47,0.0,0.0,-0.867982216555,0.49659527962399996,0.0,0.0,-0.0116937059884,0.0,0.0,0.0
48,0_48,0,48,0.0,0.0,-0.8683286939120001,0.495989192755,0.0,0.0,-0.0179768912955,0.0,0.0,0.0
49,0_49,0,49,0.0,0.0,-0.868198814489,0.496216503675,0.0,0.0,0.00942477796077,0.0,0.0,0.0
50,0_50,0,50,0.0,0.0,-0.8685017738959999,0.495686058649,0.0,0.0,-0.032637657012299995,0.0,0.0,0.0
51,0_51,0,51,0.0,0.0,-0.868588274205,0.49553446894500003,0.0,0.0,0.0019198621771900001,0.0,0.0,0.0
52,0_52,0,52,0.0,0.0,-0.868890816908,0.495003786139,0.0,0.0,-0.035604716740699996,0.0,0.0,0.0
53,0_53,0,53,0.0,0.0,-0.869020378819,0.494776294095,0.0,0.0,-0.0134390352404,0.0,0.0,0.0
54,0_54,0,54,0.0,0.0,-0.868890816908,0.495003786139,0.0,0.0,0.00715584993318,0.0,0.0,0.0
55,0_55,0,55,0.0,0.0,-0.869106720336,0.494624613891,0.0,0.0,-0.00628318530718,0.0,0.0,0.0
56,0_56,0,56,0.0,0.0,-0.869063552887,0.494700455876,0.0,0.0,-0.014835298642,0.0,0.0,0.0
57,0_57,0,57,0.0,0.0,-0.8692793239450001,0.49432120828599996,0.0,0.0,-0.0373500459927,0.0,0.0,0.0
58,0_58,0,58,0.0,0.0,-0.869624213385,0.49371421641900004,0.0,0.0,0.00418879020479,0.0,0.0,0.0
59,0_59,0,59,0.0,0.0,-0.8695380307539999,0.49386598695699996,0.0,0.0,-0.0195476876223,0.0,0.0,0.0
60,0_60,0,60,0.0,0.0,-0.8696672947669999,0.493638325511,0.0,0.0,-0.0268780704807,0.0,0.0,0.0
61,0_61,0,61,0.0,0.0,-0.869753437661,0.493486532416,0.0,0.0,0.00733038285838,0.0,0.0,0.0
62,0_62,0,62,0.0,0.0,-0.869753437661,0.493486532416,0.0,0.0,-0.0010471975512,0.0,0.0,0.0
63,0_63,0,63,0.0,0.0,-0.870054729134,0.492955138234,0.0,0.0,-0.017453292519900004,0.0,0.0,0.0
64,0_64,0,64,0.0,0.0,-0.870054729134,0.492955138234,0.0,0.0,-0.0020943951023900003,0.0,0.0,0.0
65,0_65,0,65,0.0,0.0,-0.8701837546700001,0.49272734154799996,0.0,0.0,-0.0185004900711,0.0,0.0,0.0
66,0_66,0,66,0.0,0.0,-0.870312720564,0.492499511091,0.0,0.0,0.005410520681180001,0.0,0.0,0.0
67,0_67,0,67,0.0,0.0,-0.8702697385600001,0.492575458328,0.0,0.0,0.0013962634016,0.0,0.0,0.0
68,0_68,0,68,0.0,0.0,-0.8705275311599999,0.492119718658,0.0,0.0,-0.0251327412287,0.0,0.0,0.0
69,0_69,0,69,0.0,0.0,-0.870570473392,0.492043748926,0.0,0.0,-0.0050614548307799994,0.0,0.0,0.0
70,0_70,0,70,0.0,0.0,-0.8705275311599999,0.492119718658,0.0,0.0,-0.000872664625997,0.0,0.0,0.0
71,0_71,0,71,0.0,0.0,-0.870570473392,0.492043748926,0.0,0.0,-0.014660765716799999,0.0,0.0,0.0
72,0_72,0,72,0.0,0.0,-0.870656337967,0.491891798222,0.0,0.0,-0.008901179185170001,0.0,0.0,0.0
73,0_73,0,73,0.0,0.0,-0.8710852629629999,0.491131820032,0.0,0.0,-0.0226892802759,0.0,0.0,0.0
74,0_74,0,74,0.0,0.0,-0.871128118983,0.49105580163199997,0.0,0.0,0.0005235987755980001,0.0,0.0,0.0
75,0_75,0,75,0.0,0.0,-0.871128118983,0.49105580163199997,0.0,0.0,0.00610865238198,0.0,0.0,0.0
76,0_76,0,76,0.0,0.0,-0.871128118983,0.49105580163199997,0.0,0.0,-0.00628318530718,0.0,0.0,0.0
77,0_77,0,77,0.0,0.0,-0.871342299565,0.490675653552,0.0,0.0,-0.010471975512,0.0,0.0,0.0
78,0_78,0,78,0.0,0.0,-0.871342299565,0.490675653552,0.0,0.0,0.0010471975512,0.0,0.0,0.0
79,0_79,0,79,0.0,0.0,-0.871385115776,0.490599612724,0.0,0.0,-0.00994837673637,0.0,0.0,0.0
80,0_80,0,80,0.0,0.0,-0.8715135245899999,0.490371467824,0.0,0.0,0.00418879020479,0.0,0.0,0.0
81,0_81,0,81,0.0,0.0,-0.871470728289,0.490447519859,0.0,0.0,0.0010471975512,0.0,0.0,0.0
82,0_82,0,82,0.0,0.0,-0.871684643425,0.490067222346,0.0,0.0,-0.00837758040957,0.0,0.0,0.0
83,0_83,0,83,0.0,0.0,-0.871855656047,0.48976291715400005,0.0,0.0,-0.010821041362399999,0.0,0.0,0.0
84,0_84,0,84,0.0,0.0,-0.871855656047,0.48976291715400005,0.0,0.0,-0.006981317007979999,0.0,0.0,0.0
85,0_85,0,85,0.0,0.0,-0.8718983926039999,0.48968683153000003,0.0,0.0,-0.0157079632679,0.0,0.0,0.0
86,0_86,0,86,0.0,0.0,-0.872026562436,0.48945855228600005,0.0,0.0,0.0034906585039899997,0.0,0.0,0.0
87,0_87,0,87,0.0,0.0,-0.871983845799,0.48953464909500005,0.0,0.0,0.00523598775598,0.0,0.0,0.0
88,0_88,0,88,0.0,0.0,-0.8719411225220001,0.48961074217699996,0.0,0.0,-0.000698131700798,0.0,0.0,0.0
89,0_89,0,89,0.0,0.0,-0.8719411225220001,0.48961074217699996,0.0,0.0,-0.00680678408278,0.0,0.0,0.0
90,0_90,0,90,0.0,0.0,-0.8722400460009999,0.489078012338,0.0,0.0,-0.0195476876223,0.0,0.0,0.0
91,0_91,0,91,0.0,0.0,-0.8723253929320001,0.48892577028300005,0.0,0.0,-0.015533430342700001,0.0,0.0,0.0
92,0_92,0,92,0.0,0.0,-0.872368056432,0.48884964367,0.0,0.0,-0.0020943951023900003,0.0,0.0,0.0
93,0_93,0,93,0.0,0.0,-0.87241071329,0.48877351333400004,0.0,0.0,-0.005759586531579999,0.0,0.0,0.0
94,0_94,0,94,0.0,0.0,-0.872453363503,0.488697379276,0.0,0.0,-0.00855211333477,0.0,0.0,0.0
95,0_95,0,95,0.0,0.0,-0.872623897913,0.488392805834,0.0,0.0,0.000698131700798,0.0,0.0,0.0
96,0_96,0,96,0.0,0.0,-0.872581274278,0.48846895477499996,0.0,0.0,0.0102974425868,0.0,0.0,0.0
97,0_97,0,97,0.0,0.0,-0.8725386439980001,0.488545099996,0.0,0.0,0.004363323129989999,0.0,0.0,0.0
98,0_98,0,98,0.0,0.0,-0.872623897913,0.488392805834,0.0,0.0,-0.007853981633970001,0.0,0.0,0.0
99,0_99,0,99,0.0,0.0,-0.872666514903,0.488316653174,0.0,0.0,-0.009250245035569999,0.0,0.0,0.0
100,0_100,0,100,0.0,0.0,-0.872836916401,0.488012005351,0.0,0.0,-0.008901179185170001,0.0,0.0,0.0
101,0_101,0,101,0.0,0.0,-0.872879500159,0.487935834103,0.0,0.0,-0.00523598775598,0.0,0.0,0.0
102,0_102,0,102,0.0,0.0,-0.872879500159,0.487935834103,0.0,0.0,0.00855211333477,0.0,0.0,0.0
103,0_103,0,103,0.0,0.0,-0.8729220772700002,0.48785965913900003,0.0,0.0,-0.007853981633970001,0.0,0.0,0.0
104,0_104,0,104,0.0,0.0,-0.8729646477330001,0.487783480459,0.0,0.0,-0.017278759594700002,0.0,0.0,0.0
105,0_105,0,105,0.0,0.0,-0.87321993089,0.487326330395,0.0,0.0,-0.00366519142919,0.0,0.0,0.0
106,0_106,0,106,0.0,0.0,-0.87321993089,0.487326330395,0.0,0.0,-0.00820304748437,0.0,0.0,0.0
107,0_107,0,107,0.0,0.0,-0.87321993089,0.487326330395,0.0,0.0,0.0115191730632,0.0,0.0,0.0
108,0_108,0,108,0.0,0.0,-0.8732624548100001,0.487250125725,0.0,0.0,-0.00314159265359,0.0,0.0,0.0
109,0_109,0,109,0.0,0.0,-0.873347482699,0.487097705254,0.0,0.0,-0.017278759594700002,0.0,0.0,0.0
110,0_110,0,110,0.0,0.0,-0.8733899866670001,0.487021489454,0.0,0.0,0.0050614548307799994,0.0,0.0,0.0
111,0_111,0,111,0.0,0.0,-0.873432483984,0.486945269945,0.0,0.0,-0.0197222205475,0.0,0.0,0.0
112,0_112,0,112,0.0,0.0,-0.8735599360240001,0.48671658917099997,0.0,0.0,0.0,0.0,0.0,0.0
113,0_113,0,113,0.0,0.0,-0.873899515395,0.486106610727,0.0,0.0,-0.021816615649900003,0.0,0.0,0.0
114,0_114,0,114,0.0,0.0,-0.873899515395,0.486106610727,0.0,0.0,0.0033161255787899995,0.0,0.0,0.0
115,0_115,0,115,0.0,0.0,-0.8737297789399999,0.486411629583,0.0,0.0,0.00680678408278,0.0,0.0,0.0
116,0_116,0,116,0.0,0.0,-0.8739419328720001,0.486030346756,0.0,0.0,-0.00174532925199,0.0,0.0,0.0
117,0_117,0,117,0.0,0.0,-0.8739843436929999,0.485954079085,0.0,0.0,-0.030717794835099996,0.0,0.0,0.0
118,0_118,0,118,0.0,0.0,-0.874238668839,0.48549639536000005,0.0,0.0,0.0102974425868,0.0,0.0,0.0
119,0_119,0,119,0.0,0.0,-0.8741962979569999,0.485572685227,0.0,0.0,0.00994837673637,0.0,0.0,0.0
120,0_120,0,120,0.0,0.0,-0.874492754306,0.485038578533,0.0,0.0,-0.0198967534727,0.0,0.0,0.0
121,0_121,0,121,0.0,0.0,-0.8745350785770001,0.48496226279700005,0.0,0.0,0.00261799387799,0.0,0.0,0.0
122,0_122,0,122,0.0,0.0,-0.8745350785770001,0.48496226279700005,0.0,0.0,-0.017278759594700002,0.0,0.0,0.0
123,0_123,0,123,0.0,0.0,-0.8746620114299999,0.484733293432,0.0,0.0,-0.0314159265359,0.0,0.0,0.0
124,0_124,0,124,0.0,0.0,-0.874619707139,0.484809620246,0.0,0.0,0.032637657012299995,0.0,0.0,0.0
125,0_125,0,125,0.0,0.0,-0.874577396189,0.484885943368,0.0,0.0,0.000349065850399,0.0,0.0,0.0
126,0_126,0,126,0.0,0.0,-0.8748311619779999,0.484427949268,0.0,0.0,0.010646508437200001,0.0,0.0,0.0
127,0_127,0,127,0.0,0.0,-0.875169143268,0.48381708389899997,0.0,0.0,-0.0661479786506,0.0,0.0,0.0
128,0_128,0,128,0.0,0.0,-0.875380164978,0.483435173278,0.0,0.0,-0.0310668606855,0.0,0.0,0.0
129,1_0,1,0,0.0,0.0,-0.875169143268,0.48381708389899997,0.0,0.0,0.0188495559215,0.0,0.0,0.0
130,1_1,1,1,0.0,0.0,-0.8752113609409999,0.483740709141,0.0,0.0,-0.0019198621771900001,0.0,0.0,0.0
131,1_2,1,2,0.0,0.0,-0.875337973968,0.483511562768,0.0,0.0,-0.04136430327230001,0.0,0.0,0.0
132,1_3,1,3,0.0,0.0,-0.87550669801,0.48320598272200005,0.0,0.0,0.024609142453099996,0.0,0.0,0.0
133,1_4,1,4,0.0,0.0,-0.87550669801,0.48320598272200005,0.0,0.0,-0.0256563400043,0.0,0.0,0.0
134,1_5,1,5,0.0,0.0,-0.875591020029,0.483053170619,0.0,0.0,0.00820304748437,0.0,0.0,0.0
135,1_6,1,6,0.0,0.0,-0.8757595840469999,0.48274750227200003,0.0,0.0,-0.0144862327916,0.0,0.0,0.0
136,1_7,1,7,0.0,0.0,-0.875591020029,0.483053170619,0.0,0.0,0.004363323129989999,0.0,0.0,0.0
137,1_8,1,8,0.0,0.0,-0.876054314299,0.482212441148,0.0,0.0,-0.012391837689200002,0.0,0.0,0.0
138,1_9,1,9,0.0,0.0,-0.876054314299,0.482212441148,0.0,0.0,0.005410520681180001,0.0,0.0,0.0
139,1_10,1,10,0.0,0.0,-0.876054314299,0.482212441148,0.0,0.0,-0.014311699866400001,0.0,0.0,0.0
140,1_11,1,11,0.0,0.0,-0.875928041357,0.482441775103,0.0,0.0,0.026354471705099997,0.0,0.0,0.0
141,1_12,1,12,0.0,0.0,-0.876096391937,0.48213598915100003,0.0,0.0,-0.0342084533391,0.0,0.0,0.0
142,1_13,1,13,0.0,0.0,-0.876138462904,0.48205953348200004,0.0,0.0,0.007853981633970001,0.0,0.0,0.0
143,1_14,1,14,0.0,0.0,-0.876180527198,0.481983074142,0.0,0.0,-0.028274333882299996,0.0,0.0,0.0
144,1_15,1,15,0.0,0.0,-0.876306680044,0.481753674102,0.0,0.0,0.011344640138,0.0,0.0,0.0
145,1_16,1,16,0.0,0.0,-0.876306680044,0.481753674102,0.0,0.0,-0.000698131700798,0.0,0.0,0.0
146,1_17,1,17,0.0,0.0,-0.8766427939779999,0.481141779278,0.0,0.0,-0.0251327412287,0.0,0.0,0.0
147,1_18,1,18,0.0,0.0,-0.876600803099,0.481218278961,0.0,0.0,-0.0193731546971,0.0,0.0,0.0
148,1_19,1,19,0.0,0.0,-0.8767267557080001,0.48098876891900005,0.0,0.0,-0.028972465583099998,0.0,0.0,0.0
149,1_20,1,20,0.0,0.0,-0.8767267557080001,0.48098876891900005,0.0,0.0,0.0109955742876,0.0,0.0,0.0
150,1_21,1,21,0.0,0.0,-0.8767267557080001,0.48098876891900005,0.0,0.0,-0.00942477796077,0.0,0.0,0.0
151,1_22,1,22,0.0,0.0,-0.87710425296,0.480300041057,0.0,0.0,-0.017453292519900004,0.0,0.0,0.0
152,1_23,1,23,0.0,0.0,-0.877062335535,0.48037658101400005,0.0,0.0,0.0150098315672,0.0,0.0,0.0
153,1_24,1,24,0.0,0.0,-0.8773556172299999,0.47984072452699994,0.0,0.0,-0.0343829862643,0.0,0.0,0.0
154,1_25,1,25,0.0,0.0,-0.877439351872,0.47968758977700005,0.0,0.0,-0.007853981633970001,0.0,0.0,0.0
155,1_26,1,26,0.0,0.0,-0.8773556172299999,0.47984072452699994,0.0,0.0,-0.009599310885969999,0.0,0.0,0.0
156,1_27,1,27,0.0,0.0,-0.8775649037190001,0.479457860256,0.0,0.0,0.0190240888467,0.0,0.0,0.0
157,1_28,1,28,0.0,0.0,-0.8777322126170001,0.479151503112,0.0,0.0,-0.055850536063800006,0.0,0.0,0.0
158,1_29,1,29,0.0,0.0,-0.878108266574,0.478461986133,0.0,0.0,0.0136135681656,0.0,0.0,0.0
159,1_30,1,30,0.0,0.0,-0.878316951403,0.47807879358800004,0.0,0.0,-0.0157079632679,0.0,0.0,0.0
160,1_31,1,31,0.0,0.0,-0.878108266574,0.478461986133,0.0,0.0,0.00750491578358,0.0,0.0,0.0
161,1_32,1,32,0.0,0.0,-0.878525469012,0.477695510024,0.0,0.0,-0.00471238898038,0.0,0.0,0.0
162,1_33,1,33,0.0,0.0,-0.878358668303,0.478002144155,0.0,0.0,-0.0165806278939,0.0,0.0,0.0
163,1_34,1,34,0.0,0.0,-0.878442082037,0.477848834367,0.0,0.0,0.0169296937443,0.0,0.0,0.0
164,1_35,1,35,0.0,0.0,-0.8786921626749999,0.47738881768700003,0.0,0.0,-0.04084070449669999,0.0,0.0,0.0
165,1_36,1,36,0.0,0.0,-0.878775469359,0.47723544970299997,0.0,0.0,0.0237364778271,0.0,0.0,0.0
166,1_37,1,37,0.0,0.0,-0.879066831927,0.47669854730899996,0.0,0.0,-0.0432841654495,0.0,0.0,0.0
167,1_38,1,38,0.0,0.0,-0.879066831927,0.47669854730899996,0.0,0.0,-0.014660765716799999,0.0,0.0,0.0
168,1_39,1,39,0.0,0.0,-0.879440958926,0.476007982878,0.0,0.0,-0.007679448708779999,0.0,0.0,0.0
169,1_40,1,40,0.0,0.0,-0.879399416044,0.47608472676700003,0.0,0.0,-0.0186750229963,0.0,0.0,0.0
170,1_41,1,41,0.0,0.0,-0.879440958926,0.476007982878,0.0,0.0,0.0162315620435,0.0,0.0,0.0
171,1_42,1,42,0.0,0.0,-0.8796900755589999,0.47554744344,0.0,0.0,-0.041713369122699996,0.0,0.0,0.0
172,1_43,1,43,0.0,0.0,-0.879773060847,0.475393901316,0.0,0.0,-0.013788101090799998,0.0,0.0,0.0
173,1_44,1,44,0.0,0.0,-0.879814543441,0.475317124823,0.0,0.0,0.00296705972839,0.0,0.0,0.0
174,1_45,1,45,0.0,0.0,-0.8796900755589999,0.47554744344,0.0,0.0,0.008901179185170001,0.0,0.0,0.0
175,1_46,1,46,0.0,0.0,-0.8796900755589999,0.47554744344,0.0,0.0,-0.000349065850399,0.0,0.0,0.0
176,1_47,1,47,0.0,0.0,-0.880146162961,0.474702782617,0.0,0.0,-0.0380481776935,0.0,0.0,0.0
177,1_48,1,48,0.0,0.0,-0.8802290008210001,0.47454916090300003,0.0,0.0,-0.00593411945678,0.0,0.0,0.0
178,1_49,1,49,0.0,0.0,-0.8802290008210001,0.47454916090300003,0.0,0.0,0.00820304748437,0.0,0.0,0.0
179,1_50,1,50,0.0,0.0,-0.8801875852429999,0.47462597356700004,0.0,0.0,0.005410520681180001,0.0,0.0,0.0
180,1_51,1,51,0.0,0.0,-0.8802290008210001,0.47454916090300003,0.0,0.0,-0.0178023583703,0.0,0.0,0.0
181,1_52,1,52,0.0,0.0,-0.880311811867,0.474395524734,0.0,0.0,-0.0212930168743,0.0,0.0,0.0
182,1_53,1,53,0.0,0.0,-0.880518722157,0.474011371098,0.0,0.0,-0.006981317007979999,0.0,0.0,0.0
183,1_54,1,54,0.0,0.0,-0.8805600841,0.473934529539,0.0,0.0,0.00157079632679,0.0,0.0,0.0
184,1_55,1,55,0.0,0.0,-0.880518722157,0.474011371098,0.0,0.0,0.00157079632679,0.0,0.0,0.0
185,1_56,1,56,0.0,0.0,-0.88072546481,0.47362712721699995,0.0,0.0,-0.0012217304764,0.0,0.0,0.0
186,1_57,1,57,0.0,0.0,-0.880684129692,0.473703983209,0.0,0.0,0.00157079632679,0.0,0.0,0.0
187,1_58,1,58,0.0,0.0,-0.88072546481,0.47362712721699995,0.0,0.0,0.0020943951023900003,0.0,0.0,0.0
188,1_59,1,59,0.0,0.0,-0.880849429918,0.473396537601,0.0,0.0,-0.0183259571459,0.0,0.0,0.0
189,1_60,1,60,0.0,0.0,-0.8811797083640001,0.472781473377,0.0,0.0,-0.00750491578358,0.0,0.0,0.0
190,1_61,1,61,0.0,0.0,-0.881055904267,0.47301214948,0.0,0.0,-0.00488692190558,0.0,0.0,0.0
191,1_62,1,62,0.0,0.0,-0.8810971790090001,0.472935261047,0.0,0.0,0.00977384381117,0.0,0.0,0.0
192,1_63,1,63,0.0,0.0,-0.8811797083640001,0.472781473377,0.0,0.0,-0.00837758040957,0.0,0.0,0.0
193,1_64,1,64,0.0,0.0,-0.8810971790090001,0.472935261047,0.0,0.0,0.00750491578358,0.0,0.0,0.0
194,1_65,1,65,0.0,0.0,-0.881633139939,0.471935383883,0.0,0.0,-0.028448866807499997,0.0,0.0,0.0
195,1_66,1,66,0.0,0.0,-0.881674320714,0.47185844508100006,0.0,0.0,-0.007679448708779999,0.0,0.0,0.0
196,1_67,1,67,0.0,0.0,-0.8815919524510001,0.472012319092,0.0,0.0,0.014660765716799999,0.0,0.0,0.0
197,1_68,1,68,0.0,0.0,-0.881838976665,0.471550653943,0.0,0.0,-0.0418879020479,0.0,0.0,0.0
198,1_69,1,69,0.0,0.0,-0.882044645501,0.47116583422700004,0.0,0.0,-0.026005405854700004,0.0,0.0,0.0
199,1_70,1,70,0.0,0.0,-0.881962398116,0.471319772882,0.0,0.0,-0.00453785605519,0.0,0.0,0.0
200,1_71,1,71,0.0,0.0,-0.882209059663,0.470857913864,0.0,0.0,0.00977384381117,0.0,0.0,0.0
201,1_72,1,72,0.0,0.0,-0.8821679661990001,0.470934899335,0.0,0.0,0.0109955742876,0.0,0.0,0.0
202,1_73,1,73,0.0,0.0,-0.882537565484,0.47024190105700003,0.0,0.0,-0.0205948851735,0.0,0.0,0.0
203,1_74,1,74,0.0,0.0,-0.882209059663,0.470857913864,0.0,0.0,-0.0019198621771900001,0.0,0.0,0.0
204,1_75,1,75,0.0,0.0,-0.882373366331,0.470549936128,0.0,0.0,-0.046774823953400005,0.0,0.0,0.0
205,1_76,1,76,0.0,0.0,-0.8828246552339999,0.469702701834,0.0,0.0,-0.008901179185170001,0.0,0.0,0.0
206,1_77,1,77,0.0,0.0,-0.8829475928589999,0.469471562786,0.0,0.0,-0.0373500459927,0.0,0.0,0.0
207,1_78,1,78,0.0,0.0,-0.8832342119600001,0.468932113235,0.0,0.0,0.00872664625997,0.0,0.0,0.0
208,1_79,1,79,0.0,0.0,-0.883070469967,0.46924039156099995,0.0,0.0,0.035604716740699996,0.0,0.0,0.0
209,1_80,1,80,0.0,0.0,-0.8832342119600001,0.468932113235,0.0,0.0,-0.0345575191895,0.0,0.0,0.0
210,1_81,1,81,0.0,0.0,-0.883316042601,0.46877795264300004,0.0,0.0,-0.00994837673637,0.0,0.0,0.0
211,1_82,1,82,0.0,0.0,-0.883561373069,0.46831538520599997,0.0,0.0,-0.05934119456780001,0.0,0.0,0.0
212,1_83,1,83,0.0,0.0,-0.883602237931,0.468238278148,0.0,0.0,0.0375245789179,0.0,0.0,0.0
213,1_84,1,84,0.0,0.0,-0.883520501477,0.468392488698,0.0,0.0,0.0127409035396,0.0,0.0,0.0
214,1_85,1,85,0.0,0.0,-0.883806461303,0.467852689379,0.0,0.0,0.0038397243543899996,0.0,0.0,0.0
215,1_86,1,86,0.0,0.0,-0.8837247921439999,0.46800693557899997,0.0,0.0,0.0256563400043,0.0,0.0,0.0
216,1_87,1,87,0.0,0.0,-0.884051307237,0.467389865287,0.0,0.0,-0.06736970912700001,0.0,0.0,0.0
217,1_88,1,88,0.0,0.0,-0.8841736393200001,0.467158405181,0.0,0.0,-0.000698131700798,0.0,0.0,0.0
218,1_89,1,89,0.0,0.0,-0.884662361566,0.46623224473200003,0.0,0.0,-0.014137166941200001,0.0,0.0,0.0
219,1_90,1,90,0.0,0.0,-0.8847030446359999,0.466155041602,0.0,0.0,-0.0300196631343,0.0,0.0,0.0
220,1_91,1,91,0.0,0.0,-0.884662361566,0.46623224473200003,0.0,0.0,0.044680428851100004,0.0,0.0,0.0
221,1_92,1,92,0.0,0.0,-0.884987637463,0.465614520325,0.0,0.0,-0.05201081170940001,0.0,0.0,0.0
222,1_93,1,93,0.0,0.0,-0.884987637463,0.465614520325,0.0,0.0,-0.0005235987755980001,0.0,0.0,0.0
223,1_94,1,94,0.0,0.0,-0.885353057262,0.464919309124,0.0,0.0,0.00628318530718,0.0,0.0,0.0
224,1_95,1,95,0.0,0.0,-0.885190715873,0.465228327311,0.0,0.0,-0.023387411976700002,0.0,0.0,0.0
225,1_96,1,96,0.0,0.0,-0.885150113672,0.465305573002,0.0,0.0,0.0176278254451,0.0,0.0,0.0
226,1_97,1,97,0.0,0.0,-0.88559636707,0.46445567563900003,0.0,0.0,-0.028972465583099998,0.0,0.0,0.0
227,1_98,1,98,0.0,0.0,-0.8853124820280001,0.464996568983,0.0,0.0,0.0242600766027,0.0,0.0,0.0
228,1_99,1,99,0.0,0.0,-0.885353057262,0.464919309124,0.0,0.0,0.0354301838155,0.0,0.0,0.0
229,1_100,1,100,0.0,0.0,-0.885190715873,0.465228327311,0.0,0.0,0.036302848441499995,0.0,0.0,0.0
230,1_101,1,101,0.0,0.0,-0.885515290774,0.464610234288,0.0,0.0,-0.0504400153826,0.0,0.0,0.0
231,1_102,1,102,0.0,0.0,-0.885474742511,0.46468750830600003,0.0,0.0,-0.000174532925199,0.0,0.0,0.0
232,1_103,1,103,0.0,0.0,-0.8855558322939999,0.46453295673199996,0.0,0.0,-0.0219911485751,0.0,0.0,0.0
233,1_104,1,104,0.0,0.0,-0.88559636707,0.46445567563900003,0.0,0.0,0.007679448708779999,0.0,0.0,0.0
234,1_105,1,105,0.0,0.0,-0.8857989397799999,0.464069217127,0.0,0.0,-0.00471238898038,0.0,0.0,0.0
235,1_106,1,106,0.0,0.0,-0.8857179309309999,0.464223811138,0.0,0.0,0.022863813201099998,0.0,0.0,0.0
236,1_107,1,107,0.0,0.0,-0.8858394340860001,0.46399191482,0.0,0.0,-0.03525565089030001,0.0,0.0,0.0
237,1_108,1,108,0.0,0.0,-0.8858394340860001,0.46399191482,0.0,0.0,0.0127409035396,0.0,0.0,0.0
238,1_109,1,109,0.0,0.0,-0.8858394340860001,0.46399191482,0.0,0.0,0.00488692190558,0.0,0.0,0.0
239,1_110,1,110,0.0,0.0,-0.8859608765270001,0.4637599867,0.0,0.0,0.013962634016,0.0,0.0,0.0
240,1_111,1,111,0.0,0.0,-0.88592040246,0.463837299606,0.0,0.0,0.0129154364648,0.0,0.0,0.0
241,1_112,1,112,0.0,0.0,-0.886163145651,0.463373369207,0.0,0.0,-0.015533430342700001,0.0,0.0,0.0
242,1_113,1,113,0.0,0.0,-0.886082258245,0.463528026795,0.0,0.0,-0.0178023583703,0.0,0.0,0.0
243,1_114,1,114,0.0,0.0,-0.8864056458949999,0.46290931177199995,0.0,0.0,0.010821041362399999,0.0,0.0,0.0
244,1_115,1,115,0.0,0.0,-0.88648642531,0.462754597752,0.0,0.0,-0.0242600766027,0.0,0.0,0.0
245,1_116,1,116,0.0,0.0,-0.8864056458949999,0.46290931177199995,0.0,0.0,-0.00558505360638,0.0,0.0,0.0
246,1_117,1,117,0.0,0.0,-0.886688255701,0.462367751041,0.0,0.0,-0.00610865238198,0.0,0.0,0.0
247,1_118,1,118,0.0,0.0,-0.8866479031260001,0.462445127428,0.0,0.0,-0.0116937059884,0.0,0.0,0.0
248,1_119,1,119,0.0,0.0,-0.886728601522,0.46229037113300003,0.0,0.0,0.00977384381117,0.0,0.0,0.0
249,1_120,1,120,0.0,0.0,-0.887010833178,0.461748613235,0.0,0.0,-0.0232128790515,0.0,0.0,0.0
250,1_121,1,121,0.0,0.0,-0.8868899172779999,0.461980816302,0.0,0.0,0.00733038285838,0.0,0.0,0.0
251,1_122,1,122,0.0,0.0,-0.886970534633,0.461826017774,0.0,0.0,-0.00174532925199,0.0,0.0,0.0
252,1_123,1,123,0.0,0.0,-0.8872122245749999,0.461361537804,0.0,0.0,-0.042236967898300004,0.0,0.0,0.0
253,1_124,1,124,0.0,0.0,-0.887453671283,0.460896931348,0.0,0.0,0.013962634016,0.0,0.0,0.0
254,1_125,1,125,0.0,0.0,-0.8874134470589999,0.460974374535,0.0,0.0,-0.0010471975512,0.0,0.0,0.0
255,1_126,1,126,0.0,0.0,-0.887493888749,0.46081948465000006,0.0,0.0,0.00261799387799,0.0,0.0,0.0
256,1_127,1,127,0.0,0.0,-0.887654691022,0.460509662773,0.0,0.0,-0.0240855436775,0.0,0.0,0.0
257,1_128,1,128,0.0,0.0,-0.8877350516,0.46035473078999994,0.0,0.0,-0.0125663706144,0.0,0.0,0.0
258,2_0,2,0,0.0,0.0,-0.887694874691,0.460432198535,0.0,0.0,0.0019198621771900001,0.0,0.0,0.0
259,2_1,2,1,0.0,0.0,-0.887654691022,0.460509662773,0.0,0.0,0.007679448708779999,0.0,0.0,0.0
260,2_2,2,2,0.0,0.0,-0.8876145005920001,0.460587123504,0.0,0.0,-0.0127409035396,0.0,0.0,0.0
261,2_3,2,3,0.0,0.0,-0.887694874691,0.460432198535,0.0,0.0,-0.0261799387799,0.0,0.0,0.0
262,2_4,2,4,0.0,0.0,-0.8879358347319999,0.45996733949100005,0.0,0.0,-0.0010471975512,0.0,0.0,0.0
263,2_5,2,5,0.0,0.0,-0.887975971074,0.45988985072099997,0.0,0.0,-0.00523598775598,0.0,0.0,0.0
264,2_6,2,6,0.0,0.0,-0.888056223469,0.459734862673,0.0,0.0,-0.006632251157579999,0.0,0.0,0.0
265,2_7,2,7,0.0,0.0,-0.8880963395229999,0.459657363398,0.0,0.0,-0.0160570291183,0.0,0.0,0.0
266,2_8,2,8,0.0,0.0,-0.888136448814,0.459579860621,0.0,0.0,0.000174532925199,0.0,0.0,0.0
267,2_9,2,9,0.0,0.0,-0.888136448814,0.459579860621,0.0,0.0,-0.012042771838799999,0.0,0.0,0.0
268,2_10,2,10,0.0,0.0,-0.8881765513400001,0.45950235434500003,0.0,0.0,0.000349065850399,0.0,0.0,0.0
269,2_11,2,11,0.0,0.0,-0.888136448814,0.459579860621,0.0,0.0,-0.009075712110370001,0.0,0.0,0.0
270,2_12,2,12,0.0,0.0,-0.8882567361020001,0.459347331296,0.0,0.0,-0.00488692190558,0.0,0.0,0.0
271,2_13,2,13,0.0,0.0,-0.888336893806,0.459192294254,0.0,0.0,-0.017453292519900004,0.0,0.0,0.0
272,2_14,2,14,0.0,0.0,-0.8881765513400001,0.45950235434500003,0.0,0.0,0.006632251157579999,0.0,0.0,0.0
273,2_15,2,15,0.0,0.0,-0.8883769625110001,0.459114770487,0.0,0.0,-0.0219911485751,0.0,0.0,0.0
274,2_16,2,16,0.0,0.0,-0.8886172326549999,0.45864955448399997,0.0,0.0,-0.0115191730632,0.0,0.0,0.0
275,2_17,2,17,0.0,0.0,-0.888457079624,0.458959712465,0.0,0.0,0.036128315516300004,0.0,0.0,0.0
276,2_18,2,18,0.0,0.0,-0.888457079624,0.458959712465,0.0,0.0,-0.00471238898038,0.0,0.0,0.0
277,2_19,2,19,0.0,0.0,-0.888577204547,0.45872709922,0.0,0.0,-0.0150098315672,0.0,0.0,0.0
278,2_20,2,20,0.0,0.0,-0.8886972685690001,0.458494454534,0.0,0.0,-0.0167551608191,0.0,0.0,0.0
279,2_21,2,21,0.0,0.0,-0.8886172326549999,0.45864955448399997,0.0,0.0,0.0178023583703,0.0,0.0,0.0
280,2_22,2,22,0.0,0.0,-0.888777277411,0.458339340618,0.0,0.0,-0.006632251157579999,0.0,0.0,0.0
281,2_23,2,23,0.0,0.0,-0.888777277411,0.458339340618,0.0,0.0,0.00279252680319,0.0,0.0,0.0
282,2_24,2,24,0.0,0.0,-0.888937213872,0.45802907090499995,0.0,0.0,-0.0167551608191,0.0,0.0,0.0
283,2_25,2,25,0.0,0.0,-0.8888572591789999,0.45818421274,0.0,0.0,0.0033161255787899995,0.0,0.0,0.0
284,2_26,2,26,0.0,0.0,-0.8888972399099999,0.45810664356700004,0.0,0.0,-0.0164060949687,0.0,0.0,0.0
285,2_27,2,27,0.0,0.0,-0.8890570951369999,0.457796331992,0.0,0.0,0.009599310885969999,0.0,0.0,0.0
286,2_28,2,28,0.0,0.0,-0.8890970420190001,0.45771874538199997,0.0,0.0,-0.015533430342700001,0.0,0.0,0.0
287,2_29,2,29,0.0,0.0,-0.8890570951369999,0.457796331992,0.0,0.0,0.028274333882299996,0.0,0.0,0.0
288,2_30,2,30,0.0,0.0,-0.888977181064,0.457951494755,0.0,0.0,0.022340214425499997,0.0,0.0,0.0
289,2_31,2,31,0.0,0.0,-0.889216842036,0.457485964637,0.0,0.0,-0.022340214425499997,0.0,0.0,0.0
290,2_32,2,32,0.0,0.0,-0.889216842036,0.457485964637,0.0,0.0,0.0010471975512,0.0,0.0,0.0
291,2_33,2,33,0.0,0.0,-0.889416373291,0.457097927059,0.0,0.0,-0.021816615649900003,0.0,0.0,0.0
292,2_34,2,34,0.0,0.0,-0.889336581107,0.45725315253700005,0.0,0.0,0.00366519142919,0.0,0.0,0.0
293,2_35,2,35,0.0,0.0,-0.8893764805859999,0.457175541539,0.0,0.0,-0.0188495559215,0.0,0.0,0.0
294,2_36,2,36,0.0,0.0,-0.889456259224,0.457020309098,0.0,0.0,0.0115191730632,0.0,0.0,0.0
295,2_37,2,37,0.0,0.0,-0.889416373291,0.457097927059,0.0,0.0,0.00820304748437,0.0,0.0,0.0
296,2_38,2,38,0.0,0.0,-0.889775102808,0.456399240164,0.0,0.0,-0.00174532925199,0.0,0.0,0.0
297,2_39,2,39,0.0,0.0,-0.889575876378,0.456787434334,0.0,0.0,-0.029496064358700003,0.0,0.0,0.0
298,2_40,2,40,0.0,0.0,-0.8898149277680001,0.4563215909,0.0,0.0,0.00261799387799,0.0,0.0,0.0
299,2_41,2,41,0.0,0.0,-0.890013950912,0.455933292469,0.0,0.0,-0.021816615649900003,0.0,0.0,0.0
300,2_42,2,42,0.0,0.0,-0.889775102808,0.456399240164,0.0,0.0,0.0010471975512,0.0,0.0,0.0
301,2_43,2,43,0.0,0.0,-0.890053735209,0.455855622364,0.0,0.0,0.012391837689200002,0.0,0.0,0.0
302,2_44,2,44,0.0,0.0,-0.8901730474289999,0.455622591221,0.0,0.0,-0.0291469985083,0.0,0.0,0.0
303,2_45,2,45,0.0,0.0,-0.889934361986,0.456088622262,0.0,0.0,0.022340214425499997,0.0,0.0,0.0
304,2_46,2,46,0.0,0.0,-0.8901730474289999,0.455622591221,0.0,0.0,0.0050614548307799994,0.0,0.0,0.0
305,2_47,2,47,0.0,0.0,-0.890133283468,0.455700271739,0.0,0.0,-0.0301941960595,0.0,0.0,0.0
306,2_48,2,48,0.0,0.0,-0.890093512728,0.455777948787,0.0,0.0,0.041015237421900004,0.0,0.0,0.0
307,2_49,2,49,0.0,0.0,-0.889974159838,0.456010959102,0.0,0.0,0.000349065850399,0.0,0.0,0.0
308,2_50,2,50,0.0,0.0,-0.8902128046109999,0.455544907234,0.0,0.0,0.013962634016,0.0,0.0,0.0
309,2_51,2,51,0.0,0.0,-0.8904512053270001,0.45507873047499997,0.0,0.0,-0.0287979326579,0.0,0.0,0.0
310,2_52,2,52,0.0,0.0,-0.890411488826,0.455156435269,0.0,0.0,0.0226892802759,0.0,0.0,0.0
311,2_53,2,53,0.0,0.0,-0.8902525550139999,0.455467219777,0.0,0.0,-0.0151843644924,0.0,0.0,0.0
312,2_54,2,54,0.0,0.0,-0.8901730474289999,0.455622591221,0.0,0.0,0.041189770347099995,0.0,0.0,0.0
313,2_55,2,55,0.0,0.0,-0.890093512728,0.455777948787,0.0,0.0,0.015533430342700001,0.0,0.0,0.0
314,2_56,2,56,0.0,0.0,-0.890411488826,0.455156435269,0.0,0.0,0.0185004900711,0.0,0.0,0.0
315,2_57,2,57,0.0,0.0,-0.890292298637,0.455389528851,0.0,0.0,0.024783675378299997,0.0,0.0,0.0
316,2_58,2,58,0.0,0.0,-0.8905306179870001,0.454923310491,0.0,0.0,-0.017453292519900004,0.0,0.0,0.0
317,2_59,2,59,0.0,0.0,-0.890490915048,0.45500102221600003,0.0,0.0,0.0151843644924,0.0,0.0,0.0
318,2_60,2,60,0.0,0.0,-0.890610003519,0.454767876649,0.0,0.0,-0.0345575191895,0.0,0.0,0.0
319,2_61,2,61,0.0,0.0,-0.890649686112,0.454690154533,0.0,0.0,-0.00628318530718,0.0,0.0,0.0
320,2_62,2,62,0.0,0.0,-0.8901730474289999,0.455622591221,0.0,0.0,-0.00837758040957,0.0,0.0,0.0
321,2_63,2,63,0.0,0.0,-0.8904512053270001,0.45507873047499997,0.0,0.0,0.0034906585039899997,0.0,0.0,0.0
322,2_64,2,64,0.0,0.0,-0.8904512053270001,0.45507873047499997,0.0,0.0,-0.00645771823238,0.0,0.0,0.0
323,2_65,2,65,0.0,0.0,-0.890649686112,0.454690154533,0.0,0.0,0.0251327412287,0.0,0.0,0.0
324,2_66,2,66,0.0,0.0,-0.8904512053270001,0.45507873047499997,0.0,0.0,0.05707226654019999,0.0,0.0,0.0
325,2_67,2,67,0.0,0.0,-0.8904512053270001,0.45507873047499997,0.0,0.0,-0.036826447217099996,0.0,0.0,0.0
326,2_68,2,68,0.0,0.0,-0.890490915048,0.45500102221600003,0.0,0.0,-0.0214675497995,0.0,0.0,0.0
327,2_69,2,69,0.0,0.0,-0.8907686931919999,0.454456967411,0.0,0.0,0.006981317007979999,0.0,0.0,0.0
328,2_70,2,70,0.0,0.0,-0.8907290309479999,0.45453469991400003,0.0,0.0,-0.0357792496659,0.0,0.0,0.0
329,2_71,2,71,0.0,0.0,-0.890610003519,0.454767876649,0.0,0.0,0.0274016692563,0.0,0.0,0.0
330,2_72,2,72,0.0,0.0,-0.8907290309479999,0.45453469991400003,0.0,0.0,0.000174532925199,0.0,0.0,0.0
331,2_73,2,73,0.0,0.0,-0.890649686112,0.454690154533,0.0,0.0,-0.022340214425499997,0.0,0.0,0.0
332,2_74,2,74,0.0,0.0,-0.8909272743279999,0.45414600279899997,0.0,0.0,0.0160570291183,0.0,0.0,0.0
333,2_75,2,75,0.0,0.0,-0.891006524188,0.45399049974,0.0,0.0,0.0033161255787899995,0.0,0.0,0.0
334,2_76,2,76,0.0,0.0,-0.8907290309479999,0.45453469991400003,0.0,0.0,-0.022863813201099998,0.0,0.0,0.0
335,2_77,2,77,0.0,0.0,-0.891006524188,0.45399049974,0.0,0.0,0.0305432619099,0.0,0.0,0.0
336,2_78,2,78,0.0,0.0,-0.891164942482,0.45367945213699995,0.0,0.0,-0.0404916386463,0.0,0.0,0.0
337,2_79,2,79,0.0,0.0,-0.891006524188,0.45399049974,0.0,0.0,-0.0020943951023900003,0.0,0.0,0.0
338,2_80,2,80,0.0,0.0,-0.891402366318,0.453212777096,0.0,0.0,-0.0013962634016,0.0,0.0,0.0
339,2_81,2,81,0.0,0.0,-0.891441913199,0.45313498583899997,0.0,0.0,-0.0415388361975,0.0,0.0,0.0
340,2_82,2,82,0.0,0.0,-0.8915209865960001,0.452979392974,0.0,0.0,-0.0136135681656,0.0,0.0,0.0
341,2_83,2,83,0.0,0.0,-0.8912836849439999,0.45344613015600005,0.0,0.0,-0.00366519142919,0.0,0.0,0.0
342,2_84,2,84,0.0,0.0,-0.891402366318,0.453212777096,0.0,0.0,-0.041713369122699996,0.0,0.0,0.0
343,2_85,2,85,0.0,0.0,-0.891402366318,0.453212777096,0.0,0.0,0.0165806278939,0.0,0.0,0.0
344,2_86,2,86,0.0,0.0,-0.891441913199,0.45313498583899997,0.0,0.0,-0.0204203522483,0.0,0.0,0.0
345,2_87,2,87,0.0,0.0,-0.891560513111,0.452901591366,0.0,0.0,0.036826447217099996,0.0,0.0,0.0
346,2_88,2,88,0.0,0.0,-0.891679051915,0.452668165852,0.0,0.0,-0.041189770347099995,0.0,0.0,0.0
347,2_89,2,89,0.0,0.0,-0.891718551269,0.45259035045199997,0.0,0.0,0.0020943951023900003,0.0,0.0,0.0
348,2_90,2,90,0.0,0.0,-0.891955404777,0.452123385691,0.0,0.0,-0.0610865238198,0.0,0.0,0.0
349,2_91,2,91,0.0,0.0,-0.892113171267,0.451812006981,0.0,0.0,-0.020943951023900002,0.0,0.0,0.0
350,2_92,2,92,0.0,0.0,-0.891876480775,0.45227905438999993,0.0,0.0,-0.009075712110370001,0.0,0.0,0.0
351,2_93,2,93,0.0,0.0,-0.892113171267,0.451812006981,0.0,0.0,0.0239110107523,0.0,0.0,0.0
352,2_94,2,94,0.0,0.0,-0.8923496171809999,0.45134483570399997,0.0,0.0,-0.0394444410951,0.0,0.0,0.0
353,2_95,2,95,0.0,0.0,-0.892073739835,0.45188985682099997,0.0,0.0,0.0132645023152,0.0,0.0,0.0
354,2_96,2,96,0.0,0.0,-0.892270829056,0.451500573218,0.0,0.0,0.0202458193231,0.0,0.0,0.0
355,2_97,2,97,0.0,0.0,-0.8925071118819999,0.45103331943499997,0.0,0.0,-0.0485201532054,0.0,0.0,0.0
356,2_98,2,98,0.0,0.0,-0.892310226516,0.45142270618,0.0,0.0,0.023561944901900004,0.0,0.0,0.0
357,2_99,2,99,0.0,0.0,-0.8924677484010001,0.451111203656,0.0,0.0,0.013788101090799998,0.0,0.0,0.0
358,2_100,2,100,0.0,0.0,-0.8923890010500001,0.451266961791,0.0,0.0,-0.043982297150300005,0.0,0.0,0.0
359,2_101,2,101,0.0,0.0,-0.8923890010500001,0.451266961791,0.0,0.0,0.0324631240871,0.0,0.0,0.0
360,2_102,2,102,0.0,0.0,-0.892625161541,0.450799646166,0.0,0.0,0.00837758040957,0.0,0.0,0.0
361,2_103,2,103,0.0,0.0,-0.892625161541,0.450799646166,0.0,0.0,-0.04485496177630001,0.0,0.0,0.0
362,2_104,2,104,0.0,0.0,-0.8927038273260001,0.45064384681999997,0.0,0.0,0.0242600766027,0.0,0.0,0.0
363,2_105,2,105,0.0,0.0,-0.892782465918,0.450488033747,0.0,0.0,-0.0178023583703,0.0,0.0,0.0
364,2_106,2,106,0.0,0.0,-0.8929003728129999,0.450254288408,0.0,0.0,-0.046251225177800004,0.0,0.0,0.0
365,2_107,2,107,0.0,0.0,-0.893057486807,0.449942579956,0.0,0.0,-0.0404916386463,0.0,0.0,0.0
366,2_108,2,108,0.0,0.0,-0.8929003728129999,0.450254288408,0.0,0.0,0.023387411976700002,0.0,0.0,0.0
367,2_109,2,109,0.0,0.0,-0.8930967483040001,0.449864644275,0.0,0.0,0.000698131700798,0.0,0.0,0.0
368,2_110,2,110,0.0,0.0,-0.8930182185100001,0.45002051221,0.0,0.0,0.020943951023900002,0.0,0.0,0.0
369,2_111,2,111,0.0,0.0,-0.893371388328,0.44931899861599994,0.0,0.0,-0.021816615649900003,0.0,0.0,0.0
370,2_112,2,112,0.0,0.0,-0.893292953762,0.449474914493,0.0,0.0,0.022340214425499997,0.0,0.0,0.0
371,2_113,2,113,0.0,0.0,-0.893371388328,0.44931899861599994,0.0,0.0,-0.0102974425868,0.0,0.0,0.0
372,2_114,2,114,0.0,0.0,-0.893332174447,0.449396958266,0.0,0.0,0.0185004900711,0.0,0.0,0.0
373,2_115,2,115,0.0,0.0,-0.893253726275,0.449552867298,0.0,0.0,-0.0212930168743,0.0,0.0,0.0
374,2_116,2,116,0.0,0.0,-0.893292953762,0.449474914493,0.0,0.0,-0.004014257279590001,0.0,0.0,0.0
375,2_117,2,117,0.0,0.0,-0.8930967483040001,0.449864644275,0.0,0.0,-0.006981317007979999,0.0,0.0,0.0
376,2_118,2,118,0.0,0.0,-0.893332174447,0.449396958266,0.0,0.0,-0.00820304748437,0.0,0.0,0.0
377,2_119,2,119,0.0,0.0,-0.8934889891500001,0.449085099138,0.0,0.0,-0.00523598775598,0.0,0.0,0.0
378,2_120,2,120,0.0,0.0,-0.893292953762,0.449474914493,0.0,0.0,-0.010646508437200001,0.0,0.0,0.0
379,2_121,2,121,0.0,0.0,-0.893528175816,0.449007125805,0.0,0.0,0.0254818070791,0.0,0.0,0.0
380,2_122,2,122,0.0,0.0,-0.893645694984,0.448773185291,0.0,0.0,-0.021118483949099997,0.0,0.0,0.0
381,2_123,2,123,0.0,0.0,-0.893528175816,0.449007125805,0.0,0.0,-0.0197222205475,0.0,0.0,0.0
382,2_124,2,124,0.0,0.0,-0.89372400707,0.44861720785899994,0.0,0.0,0.0198967534727,0.0,0.0,0.0
383,2_125,2,125,0.0,0.0,-0.893802291931,0.448461216762,0.0,0.0,-0.0102974425868,0.0,0.0,0.0
384,2_126,2,126,0.0,0.0,-0.893645694984,0.448773185291,0.0,0.0,-0.00488692190558,0.0,0.0,0.0
385,2_127,2,127,0.0,0.0,-0.8936848544299999,0.448695198283,0.0,0.0,0.0237364778271,0.0,0.0,0.0
386,2_128,2,128,0.0,0.0,-0.893841424151,0.44838321609,0.0,0.0,-0.0225147473507,0.0,0.0,0.0
387,3_0,3,0,0.0,0.0,-0.893919668171,0.448227204503,0.0,0.0,0.00733038285838,0.0,0.0,0.0
388,3_1,3,1,0.0,0.0,-0.893802291931,0.448461216762,0.0,0.0,-0.026354471705099997,0.0,0.0,0.0
389,3_2,3,2,0.0,0.0,-0.893997884961,0.448071179262,0.0,0.0,-0.024609142453099996,0.0,0.0,0.0
390,3_3,3,3,0.0,0.0,-0.893841424151,0.44838321609,0.0,0.0,0.007679448708779999,0.0,0.0,0.0
391,3_4,3,4,0.0,0.0,-0.893802291931,0.448461216762,0.0,0.0,0.0303687289847,0.0,0.0,0.0
392,3_5,3,5,0.0,0.0,-0.89372400707,0.44861720785899994,0.0,0.0,0.0101229096616,0.0,0.0,0.0
393,3_6,3,6,0.0,0.0,-0.894115159083,0.447837115811,0.0,0.0,-0.014835298642,0.0,0.0,0.0
394,3_7,3,7,0.0,0.0,-0.894036983143,0.447993161523,0.0,0.0,0.0261799387799,0.0,0.0,0.0
395,3_8,3,8,0.0,0.0,-0.894036983143,0.447993161523,0.0,0.0,-0.021816615649900003,0.0,0.0,0.0
396,3_9,3,9,0.0,0.0,-0.893997884961,0.448071179262,0.0,0.0,0.0212930168743,0.0,0.0,0.0
397,3_10,3,10,0.0,0.0,-0.894232371924,0.44760302166500004,0.0,0.0,-0.0553269372882,0.0,0.0,0.0
398,3_11,3,11,0.0,0.0,-0.894349523474,0.447368896841,0.0,0.0,-0.0129154364648,0.0,0.0,0.0
399,3_12,3,12,0.0,0.0,-0.894036983143,0.447993161523,0.0,0.0,0.0253072741539,0.0,0.0,0.0
400,3_13,3,13,0.0,0.0,-0.893841424151,0.44838321609,0.0,0.0,0.022863813201099998,0.0,0.0,0.0
401,3_14,3,14,0.0,0.0,-0.894154236839,0.447759087839,0.0,0.0,-0.051138147083400004,0.0,0.0,0.0
402,3_15,3,15,0.0,0.0,-0.894193307786,0.447681056457,0.0,0.0,-0.0050614548307799994,0.0,0.0,0.0
403,3_16,3,16,0.0,0.0,-0.893997884961,0.448071179262,0.0,0.0,0.0380481776935,0.0,0.0,0.0
404,3_17,3,17,0.0,0.0,-0.894193307786,0.447681056457,0.0,0.0,-0.0287979326579,0.0,0.0,0.0
405,3_18,3,18,0.0,0.0,-0.8940760745180001,0.44791514037299995,0.0,0.0,0.010821041362399999,0.0,0.0,0.0
406,3_19,3,19,0.0,0.0,-0.894036983143,0.447993161523,0.0,0.0,0.0230383461263,0.0,0.0,0.0
407,3_20,3,20,0.0,0.0,-0.894349523474,0.447368896841,0.0,0.0,-0.0286233997327,0.0,0.0,0.0
408,3_21,3,21,0.0,0.0,-0.894154236839,0.447759087839,0.0,0.0,0.00488692190558,0.0,0.0,0.0
409,3_22,3,22,0.0,0.0,-0.893997884961,0.448071179262,0.0,0.0,0.035604716740699996,0.0,0.0,0.0
410,3_23,3,23,0.0,0.0,-0.894232371924,0.44760302166500004,0.0,0.0,-0.0459021593275,0.0,0.0,0.0
411,3_24,3,24,0.0,0.0,-0.894271429251,0.447524983465,0.0,0.0,-0.00471238898038,0.0,0.0,0.0
412,3_25,3,25,0.0,0.0,-0.894349523474,0.447368896841,0.0,0.0,-0.006632251157579999,0.0,0.0,0.0
413,3_26,3,26,0.0,0.0,-0.893997884961,0.448071179262,0.0,0.0,0.0267035375555,0.0,0.0,0.0
414,3_27,3,27,0.0,0.0,-0.894154236839,0.447759087839,0.0,0.0,-0.0219911485751,0.0,0.0,0.0
415,3_28,3,28,0.0,0.0,-0.894232371924,0.44760302166500004,0.0,0.0,-0.0162315620435,0.0,0.0,0.0
416,3_29,3,29,0.0,0.0,-0.894232371924,0.44760302166500004,0.0,0.0,0.0167551608191,0.0,0.0,0.0
417,3_30,3,30,0.0,0.0,-0.894115159083,0.447837115811,0.0,0.0,-0.020071286397900002,0.0,0.0,0.0
418,3_31,3,31,0.0,0.0,-0.894154236839,0.447759087839,0.0,0.0,0.00157079632679,0.0,0.0,0.0
419,3_32,3,32,0.0,0.0,-0.894232371924,0.44760302166500004,0.0,0.0,-0.055850536063800006,0.0,0.0,0.0
420,3_33,3,33,0.0,0.0,-0.894466613728,0.447134741355,0.0,0.0,-0.056025068989000004,0.0,0.0,0.0
421,3_34,3,34,0.0,0.0,-0.894427590455,0.44721279658999996,0.0,0.0,0.012217304764,0.0,0.0,0.0
422,3_35,3,35,0.0,0.0,-0.894427590455,0.44721279658999996,0.0,0.0,-0.006632251157579999,0.0,0.0,0.0
423,3_36,3,36,0.0,0.0,-0.894466613728,0.447134741355,0.0,0.0,-0.00733038285838,0.0,0.0,0.0
424,3_37,3,37,0.0,0.0,-0.894622638699,0.446822486371,0.0,0.0,-0.0493928178314,0.0,0.0,0.0
425,3_38,3,38,0.0,0.0,-0.89481751662,0.446432091084,0.0,0.0,0.028448866807499997,0.0,0.0,0.0
426,3_39,3,39,0.0,0.0,-0.8947395858930001,0.446588259403,0.0,0.0,0.015358897417600001,0.0,0.0,0.0
427,3_40,3,40,0.0,0.0,-0.89481751662,0.446432091084,0.0,0.0,-0.0373500459927,0.0,0.0,0.0
428,3_41,3,41,0.0,0.0,-0.894934361602,0.44619781311000006,0.0,0.0,0.0317649923863,0.0,0.0,0.0
429,3_42,3,42,0.0,0.0,-0.895051145246,0.44596350455399997,0.0,0.0,-0.0167551608191,0.0,0.0,0.0
430,3_43,3,43,0.0,0.0,-0.895167867544,0.445729165431,0.0,0.0,-0.027925268031900003,0.0,0.0,0.0
431,3_44,3,44,0.0,0.0,-0.8952067613429999,0.44565104560099994,0.0,0.0,0.032637657012299995,0.0,0.0,0.0
432,3_45,3,45,0.0,0.0,-0.895245648325,0.445572922377,0.0,0.0,-0.0277507351067,0.0,0.0,0.0
433,3_46,3,46,0.0,0.0,-0.8952845284890001,0.44549479575900003,0.0,0.0,-0.00715584993318,0.0,0.0,0.0
434,3_47,3,47,0.0,0.0,-0.895362268362,0.445338532347,0.0,0.0,0.0101229096616,0.0,0.0,0.0
435,3_48,3,48,0.0,0.0,-0.895439980961,0.44518225536899997,0.0,0.0,-0.0418879020479,0.0,0.0,0.0
436,3_49,3,49,0.0,0.0,-0.8955564987160001,0.444947814477,0.0,0.0,0.014311699866400001,0.0,0.0,0.0
437,3_50,3,50,0.0,0.0,-0.8955564987160001,0.444947814477,0.0,0.0,0.006981317007979999,0.0,0.0,0.0
438,3_51,3,51,0.0,0.0,-0.895478827032,0.445104111795,0.0,0.0,0.013788101090799998,0.0,0.0,0.0
439,3_52,3,52,0.0,0.0,-0.895711760239,0.444635179185,0.0,0.0,-0.0256563400043,0.0,0.0,0.0
440,3_53,3,53,0.0,0.0,-0.89567295509,0.444713343089,0.0,0.0,0.0050614548307799994,0.0,0.0,0.0
441,3_54,3,54,0.0,0.0,-0.89567295509,0.444713343089,0.0,0.0,0.000872664625997,0.0,0.0,0.0
442,3_55,3,55,0.0,0.0,-0.895478827032,0.445104111795,0.0,0.0,-0.000698131700798,0.0,0.0,0.0
443,3_56,3,56,0.0,0.0,-0.895595324327,0.444869660735,0.0,0.0,-0.0291469985083,0.0,0.0,0.0
444,3_57,3,57,0.0,0.0,-0.8958281347600001,0.44440066716000004,0.0,0.0,-0.00610865238198,0.0,0.0,0.0
445,3_58,3,58,0.0,0.0,-0.8958281347600001,0.44440066716000004,0.0,0.0,-0.000872664625997,0.0,0.0,0.0
446,3_59,3,59,0.0,0.0,-0.895595324327,0.444869660735,0.0,0.0,0.029670597283900004,0.0,0.0,0.0
447,3_60,3,60,0.0,0.0,-0.895517666284,0.445025964831,0.0,0.0,0.00715584993318,0.0,0.0,0.0
448,3_61,3,61,0.0,0.0,-0.8957893500749999,0.44447884122000003,0.0,0.0,0.0158824961931,0.0,0.0,0.0
449,3_62,3,62,0.0,0.0,-0.895750558568,0.44455701189499996,0.0,0.0,-0.008901179185170001,0.0,0.0,0.0
450,3_63,3,63,0.0,0.0,-0.8955564987160001,0.444947814477,0.0,0.0,-0.00174532925199,0.0,0.0,0.0
451,3_64,3,64,0.0,0.0,-0.895905683664,0.444244308887,0.0,0.0,0.004363323129989999,0.0,0.0,0.0
452,3_65,3,65,0.0,0.0,-0.895750558568,0.44455701189499996,0.0,0.0,-0.012217304764,0.0,0.0,0.0
453,3_66,3,66,0.0,0.0,-0.8955564987160001,0.444947814477,0.0,0.0,0.026529004630299998,0.0,0.0,0.0
454,3_67,3,67,0.0,0.0,-0.8960606995970001,0.443931551749,0.0,0.0,-0.028972465583099998,0.0,0.0,0.0
455,3_68,3,68,0.0,0.0,-0.895944447882,0.44416612467600003,0.0,0.0,0.00279252680319,0.0,0.0,0.0
456,3_69,3,69,0.0,0.0,-0.895750558568,0.44455701189499996,0.0,0.0,0.032637657012299995,0.0,0.0,0.0
457,3_70,3,70,0.0,0.0,-0.895983205277,0.444087937082,0.0,0.0,-0.03403392041390001,0.0,0.0,0.0
458,3_71,3,71,0.0,0.0,-0.895944447882,0.44416612467600003,0.0,0.0,-0.00872664625997,0.0,0.0,0.0
459,3_72,3,72,0.0,0.0,-0.896021955849,0.444009746106,0.0,0.0,0.00418879020479,0.0,0.0,0.0
460,3_73,3,73,0.0,0.0,-0.896099436521,0.443853354011,0.0,0.0,0.0005235987755980001,0.0,0.0,0.0
461,3_74,3,74,0.0,0.0,-0.896021955849,0.444009746106,0.0,0.0,-0.005759586531579999,0.0,0.0,0.0
462,3_75,3,75,0.0,0.0,-0.896021955849,0.444009746106,0.0,0.0,0.015358897417600001,0.0,0.0,0.0
463,3_76,3,76,0.0,0.0,-0.896021955849,0.444009746106,0.0,0.0,0.00157079632679,0.0,0.0,0.0
464,3_77,3,77,0.0,0.0,-0.896138166621,0.443775152893,0.0,0.0,-0.004014257279590001,0.0,0.0,0.0
465,3_78,3,78,0.0,0.0,-0.896176889896,0.443696948396,0.0,0.0,-0.00471238898038,0.0,0.0,0.0
466,3_79,3,79,0.0,0.0,-0.896254315973,0.443540529265,0.0,0.0,0.013962634016,0.0,0.0,0.0
467,3_80,3,80,0.0,0.0,-0.8962930187729999,0.44346231463200003,0.0,0.0,-0.0256563400043,0.0,0.0,0.0
468,3_81,3,81,0.0,0.0,-0.896215606347,0.44361874052,0.0,0.0,0.00453785605519,0.0,0.0,0.0
469,3_82,3,82,0.0,0.0,-0.896215606347,0.44361874052,0.0,0.0,0.0190240888467,0.0,0.0,0.0
470,3_83,3,83,0.0,0.0,-0.896138166621,0.443775152893,0.0,0.0,0.0129154364648,0.0,0.0,0.0
471,3_84,3,84,0.0,0.0,-0.8964090862190001,0.443227650474,0.0,0.0,-0.0219911485751,0.0,0.0,0.0
472,3_85,3,85,0.0,0.0,-0.8964090862190001,0.443227650474,0.0,0.0,-0.000174532925199,0.0,0.0,0.0
473,3_86,3,86,0.0,0.0,-0.8964090862190001,0.443227650474,0.0,0.0,0.0012217304764,0.0,0.0,0.0
474,3_87,3,87,0.0,0.0,-0.896331714747,0.443384096623,0.0,0.0,0.0240855436775,0.0,0.0,0.0
475,3_88,3,88,0.0,0.0,-0.8964090862190001,0.443227650474,0.0,0.0,-0.04485496177630001,0.0,0.0,0.0
476,3_89,3,89,0.0,0.0,-0.896447761714,0.443149422337,0.0,0.0,0.00837758040957,0.0,0.0,0.0
477,3_90,3,90,0.0,0.0,-0.8964864303829999,0.44307119082400004,0.0,0.0,-0.00855211333477,0.0,0.0,0.0
478,3_91,3,91,0.0,0.0,-0.896331714747,0.443384096623,0.0,0.0,0.0286233997327,0.0,0.0,0.0
479,3_92,3,92,0.0,0.0,-0.896331714747,0.443384096623,0.0,0.0,-0.00314159265359,0.0,0.0,0.0
480,3_93,3,93,0.0,0.0,-0.896641036785,0.442758231039,0.0,0.0,-0.0102974425868,0.0,0.0,0.0
481,3_94,3,94,0.0,0.0,-0.896447761714,0.443149422337,0.0,0.0,-0.0033161255787899995,0.0,0.0,0.0
482,3_95,3,95,0.0,0.0,-0.8964090862190001,0.443227650474,0.0,0.0,0.004014257279590001,0.0,0.0,0.0
483,3_96,3,96,0.0,0.0,-0.8968341411480001,0.442366955446,0.0,0.0,-0.00296705972839,0.0,0.0,0.0
484,3_97,3,97,0.0,0.0,-0.8964090862190001,0.443227650474,0.0,0.0,0.0115191730632,0.0,0.0,0.0
485,3_98,3,98,0.0,0.0,-0.896138166621,0.443775152893,0.0,0.0,0.0274016692563,0.0,0.0,0.0
486,3_99,3,99,0.0,0.0,-0.896254315973,0.443540529265,0.0,0.0,-0.0116937059884,0.0,0.0,0.0
487,3_100,3,100,0.0,0.0,-0.8962930187729999,0.44346231463200003,0.0,0.0,-0.0251327412287,0.0,0.0,0.0
488,3_101,3,101,0.0,0.0,-0.896254315973,0.443540529265,0.0,0.0,0.0190240888467,0.0,0.0,0.0
489,3_102,3,102,0.0,0.0,-0.896447761714,0.443149422337,0.0,0.0,0.000349065850399,0.0,0.0,0.0
490,3_103,3,103,0.0,0.0,-0.896215606347,0.44361874052,0.0,0.0,-0.0214675497995,0.0,0.0,0.0
491,3_104,3,104,0.0,0.0,-0.896331714747,0.443384096623,0.0,0.0,0.0013962634016,0.0,0.0,0.0
492,3_105,3,105,0.0,0.0,-0.8966023954269999,0.442836476044,0.0,0.0,0.0162315620435,0.0,0.0,0.0
493,3_106,3,106,0.0,0.0,-0.896525092225,0.44299295593800003,0.0,0.0,-0.0134390352404,0.0,0.0,0.0
494,3_107,3,107,0.0,0.0,-0.896370403896,0.44330587523599996,0.0,0.0,0.014137166941200001,0.0,0.0,0.0
495,3_108,3,108,0.0,0.0,-0.8964090862190001,0.443227650474,0.0,0.0,-0.0202458193231,0.0,0.0,0.0
496,3_109,3,109,0.0,0.0,-0.8966796713160001,0.442679982662,0.0,0.0,0.00680678408278,0.0,0.0,0.0
497,3_110,3,110,0.0,0.0,-0.897373924886,0.441270935972,0.0,0.0,-0.21240656996800003,0.0,0.0,0.0
498,3_111,3,111,0.0,0.0,-0.8986026852500001,0.438763277932,0.0,0.0,-0.317649923863,0.0,0.0,0.0
499,3_112,3,112,0.0,0.0,-0.9015684119949999,0.432636566291,0.0,0.0,-0.20891591146400001,0.0,0.0,0.0
500,3_113,3,113,0.0,0.0,-0.907484424541,0.42008572841200004,0.0,0.0,-0.6206390820090001,0.0,0.0,0.0
501,3_114,3,114,0.0,0.0,-0.909961270877,0.41469324265600005,0.0,0.0,-0.642106631809,0.0,0.0,0.0
502,3_115,3,115,0.0,0.0,-0.917581249868,0.397548298815,0.0,0.0,-0.509112542807,0.0,0.0,0.0
503,3_116,3,116,0.0,0.0,-0.9227063849079999,0.385503472423,0.0,0.0,-0.471238898038,0.0,0.0,0.0
504,3_117,3,117,0.0,0.0,-0.928971150634,0.370152132628,0.0,0.0,-0.559028959414,0.0,0.0,0.0
505,3_118,3,118,0.0,0.0,-0.934763684301,0.355270114859,0.0,0.0,-0.571420797103,0.0,0.0,0.0
506,3_119,3,119,0.0,0.0,-0.940673670199,0.339312608363,0.0,0.0,-0.5038765550509999,0.0,0.0,0.0
507,3_120,3,120,0.0,0.0,-0.9422329656749999,0.334958263661,0.0,0.0,-0.5012585611729999,0.0,0.0,0.0
508,3_121,3,121,0.0,0.0,-0.946705491672,0.322100468858,0.0,0.0,-0.474205957767,0.0,0.0,0.0
509,3_122,3,122,0.0,0.0,-0.951889006575,0.306443011278,0.0,0.0,-0.53808500839,0.0,0.0,0.0
510,3_123,3,123,0.0,0.0,-0.9565595342409999,0.29153706017,0.0,0.0,-0.558156294788,0.0,0.0,0.0
511,3_124,3,124,0.0,0.0,-0.961381873914,0.275217900052,0.0,0.0,-0.46862090416,0.0,0.0,0.0
512,3_125,3,125,0.0,0.0,-0.9647643663519999,0.263115407033,0.0,0.0,-0.453087473818,0.0,0.0,0.0
513,3_126,3,126,0.0,0.0,-0.969037282447,0.24691444920699998,0.0,0.0,-0.554316570433,0.0,0.0,0.0
514,3_127,3,127,0.0,0.0,-0.9727354157539999,0.231917681383,0.0,0.0,-0.541575666894,0.0,0.0,0.0
515,3_128,3,128,0.0,0.0,-0.97440931131,0.224780991261,0.0,0.0,-0.517839189067,0.0,0.0,0.0
516,4_0,4,0,0.0,0.0,-0.9774527625339999,0.211154201982,0.0,0.0,-0.49445177709,0.0,0.0,0.0
517,4_1,4,1,0.0,0.0,-0.980785280403,0.195090322016,0.0,0.0,-0.524995039,0.0,0.0,0.0
518,4_2,4,2,0.0,0.0,-0.9817103461310001,0.190380661567,0.0,0.0,-0.5176646561420001,0.0,0.0,0.0
519,4_3,4,3,0.0,0.0,-0.98442656809,0.175796279934,0.0,0.0,-0.542273798595,0.0,0.0,0.0
520,4_4,4,4,0.0,0.0,-0.985318641925,0.17072543417999997,0.0,0.0,-0.561123354516,0.0,0.0,0.0
521,4_5,4,5,0.0,0.0,-0.988295040036,0.152554625759,0.0,0.0,-0.56461401302,0.0,0.0,0.0
522,4_6,4,6,0.0,0.0,-0.9890802632350001,0.14737785749399998,0.0,0.0,-0.5567600313859999,0.0,0.0,0.0
523,4_7,4,7,0.0,0.0,-0.99143346704,0.130612711609,0.0,0.0,-0.5075417464800001,0.0,0.0,0.0
524,4_8,4,8,0.0,0.0,-0.9931808271989999,0.11658406616599999,0.0,0.0,-0.507367213555,0.0,0.0,0.0
525,4_9,4,9,0.0,0.0,-0.993738702607,0.111729096216,0.0,0.0,-0.5361651462129999,0.0,0.0,0.0
526,4_10,4,10,0.0,0.0,-0.9956761965690001,0.0928919349936,0.0,0.0,-0.588525023772,0.0,0.0,0.0
527,4_11,4,11,0.0,0.0,-0.996171846633,0.08741654292,0.0,0.0,-0.58643062867,0.0,0.0,0.0
528,4_12,4,12,0.0,0.0,-0.997434539804,0.0715844871891,0.0,0.0,-0.560425222815,0.0,0.0,0.0
529,4_13,4,13,0.0,0.0,-0.9985413857909999,0.053991674016,0.0,0.0,-0.515046662264,0.0,0.0,0.0
530,4_14,4,14,0.0,0.0,-0.999269601128,0.0382134042239,0.0,0.0,-0.493753645389,0.0,0.0,0.0
531,4_15,4,15,0.0,0.0,-0.9997265269460001,0.023385279995499997,0.0,0.0,-0.574736922682,0.0,0.0,0.0
532,4_16,4,16,0.0,0.0,-0.999992628267,0.00383971491924,0.0,0.0,-0.6133086991510001,0.0,0.0,0.0
533,4_17,4,17,0.0,0.0,0.999924299719,0.0123042607385,0.0,0.0,-0.548731516827,0.0,0.0,0.0
534,4_18,4,18,0.0,0.0,0.9995727093089999,0.0292301010092,0.0,0.0,-0.48397980157799997,0.0,0.0,0.0
535,4_19,4,19,0.0,0.0,0.999070923691,0.0430962809844,0.0,0.0,-0.5056218843029999,0.0,0.0,0.0
536,4_20,4,20,0.0,0.0,0.998156047572,0.0607001210504,0.0,0.0,-0.570548132477,0.0,0.0,0.0
537,4_21,4,21,0.0,0.0,0.997019182325,0.0771540671435,0.0,0.0,-0.608945376021,0.0,0.0,0.0
538,4_22,4,22,0.0,0.0,0.995371071896,0.09610634334799999,0.0,0.0,-0.5667084081229999,0.0,0.0,0.0
539,4_23,4,23,0.0,0.0,0.994863056025,0.101229935083,0.0,0.0,-0.541750199819,0.0,0.0,0.0
540,4_24,4,24,0.0,0.0,0.993402822033,0.114677082175,0.0,0.0,-0.471413430964,0.0,0.0,0.0
541,4_25,4,25,0.0,0.0,0.9913992387360001,0.130872263805,0.0,0.0,-0.551873109481,0.0,0.0,0.0
542,4_26,4,26,0.0,0.0,0.990700406441,0.136061400396,0.0,0.0,-0.570897198327,0.0,0.0,0.0
543,4_27,4,27,0.0,0.0,0.988334944875,0.152295885498,0.0,0.0,-0.596728071257,0.0,0.0,0.0
544,4_28,4,28,0.0,0.0,0.985154303328,0.171671193372,0.0,0.0,-0.594982742005,0.0,0.0,0.0
545,4_29,4,29,0.0,0.0,0.9841956079690001,0.17708474032000002,0.0,0.0,-0.59044488595,0.0,0.0,0.0
546,4_30,4,30,0.0,0.0,0.982172602731,0.187981324723,0.0,0.0,-0.0720820981074,0.0,0.0,0.0
547,4_31,4,31,0.0,0.0,0.9816271834479999,0.19080899537700002,0.0,0.0,-0.198443935952,0.0,0.0,0.0
548,4_32,4,32,0.0,0.0,0.9812085670280001,0.192950117883,0.0,0.0,-0.243647963578,0.0,0.0,0.0
549,4_33,4,33,0.0,0.0,0.9792228106219999,0.20278729535700002,0.0,0.0,-0.33807027611100005,0.0,0.0,0.0
550,4_34,4,34,0.0,0.0,0.978652704312,0.20552100705899998,0.0,0.0,-0.27890361446899997,0.0,0.0,0.0
551,4_35,4,35,0.0,0.0,0.9783647889779999,0.206887263232,0.0,0.0,0.04084070449669999,0.0,0.0,0.0
552,4_36,4,36,0.0,0.0,0.978328665438,0.20705801694899997,0.0,0.0,-0.0034906585039899997,0.0,0.0,0.0
553,4_37,4,37,0.0,0.0,0.9781657407269999,0.207826330545,0.0,0.0,0.00558505360638,0.0,0.0,0.0
554,4_38,4,38,0.0,0.0,0.9780749662720001,0.208253116068,0.0,0.0,-0.0230383461263,0.0,0.0,0.0
555,4_39,4,39,0.0,0.0,0.97803860435,0.20842381917999997,0.0,0.0,-0.0376991118431,0.0,0.0,0.0
556,4_40,4,40,0.0,0.0,0.9779293398309999,0.20893589040199997,0.0,0.0,0.014660765716799999,0.0,0.0,0.0
557,4_41,4,41,0.0,0.0,0.977746636525,0.209789215079,0.0,0.0,-0.0331612557879,0.0,0.0,0.0
558,4_42,4,42,0.0,0.0,0.977673346708,0.21013050025199997,0.0,0.0,-0.030892327760299997,0.0,0.0,0.0
559,4_43,4,43,0.0,0.0,0.977544802886,0.210727687671,0.0,0.0,0.00558505360638,0.0,0.0,0.0
560,4_44,4,44,0.0,0.0,0.977415894286,0.21132479645500002,0.0,0.0,-0.039793506945500004,0.0,0.0,0.0
561,4_45,4,45,0.0,0.0,0.977175524989,0.212433503388,0.0,0.0,-0.020943951023900002,0.0,0.0,0.0
562,4_46,4,46,0.0,0.0,0.97708274037,0.21285985640900001,0.0,0.0,-0.0317649923863,0.0,0.0,0.0
563,4_47,4,47,0.0,0.0,0.976803270447,0.21413867199499997,0.0,0.0,-0.013788101090799998,0.0,0.0,0.0
564,4_48,4,48,0.0,0.0,0.976784579603,0.21422391334600002,0.0,0.0,-0.0050614548307799994,0.0,0.0,0.0
565,4_49,4,49,0.0,0.0,0.9767471756,0.214394391152,0.0,0.0,0.00488692190558,0.0,0.0,0.0
566,4_50,4,50,0.0,0.0,0.9765784894030001,0.215161460387,0.0,0.0,-0.06527531402459999,0.0,0.0,0.0
567,4_51,4,51,0.0,0.0,0.9764280403929999,0.215843188299,0.0,0.0,-0.0753982236862,0.0,0.0,0.0
568,4_52,4,52,0.0,0.0,0.976277115483,0.216524811013,0.0,0.0,0.00261799387799,0.0,0.0,0.0
569,4_53,4,53,0.0,0.0,0.9762582164110001,0.216610006439,0.0,0.0,-0.014137166941200001,0.0,0.0,0.0
570,4_54,4,54,0.0,0.0,0.9762393099050001,0.216695200215,0.0,0.0,0.009075712110370001,0.0,0.0,0.0
571,4_55,4,55,0.0,0.0,0.97601185198,0.21771739662599998,0.0,0.0,-0.0162315620435,0.0,0.0,0.0
572,4_56,4,56,0.0,0.0,0.975992848837,0.217802568899,0.0,0.0,-0.0109955742876,0.0,0.0,0.0
573,4_57,4,57,0.0,0.0,0.975878673897,0.21831356768000004,0.0,0.0,0.0020943951023900003,0.0,0.0,0.0
574,4_58,4,58,0.0,0.0,0.975783323739,0.218739354284,0.0,0.0,-0.0509636141582,0.0,0.0,0.0
575,4_59,4,59,0.0,0.0,0.9755920661159999,0.21959080247499999,0.0,0.0,0.000174532925199,0.0,0.0,0.0
576,4_60,4,60,0.0,0.0,0.9755920661159999,0.21959080247499999,0.0,0.0,-0.00418879020479,0.0,0.0,0.0
577,4_61,4,61,0.0,0.0,0.975553725432,0.21976107206700002,0.0,0.0,0.000174532925199,0.0,0.0,0.0
578,4_62,4,62,0.0,0.0,0.975265223151,0.22103788026500001,0.0,0.0,-0.0605629250442,0.0,0.0,0.0
579,4_63,4,63,0.0,0.0,0.975110671946,0.22171868991399998,0.0,0.0,-0.004363323129989999,0.0,0.0,0.0
580,4_64,4,64,0.0,0.0,0.975110671946,0.22171868991399998,0.0,0.0,0.00366519142919,0.0,0.0,0.0
581,4_65,4,65,0.0,0.0,0.9750913196269999,0.221803783528,0.0,0.0,-0.00680678408278,0.0,0.0,0.0
582,4_66,4,66,0.0,0.0,0.975052592713,0.221973965689,0.0,0.0,-0.0164060949687,0.0,0.0,0.0
583,4_67,4,67,0.0,0.0,0.9749362337630001,0.222484471582,0.0,0.0,-0.0158824961931,0.0,0.0,0.0
584,4_68,4,68,0.0,0.0,0.97481960753,0.222994916479,0.0,0.0,-0.011868238913600001,0.0,0.0,0.0
585,4_69,4,69,0.0,0.0,0.97481960753,0.222994916479,0.0,0.0,-0.00366519142919,0.0,0.0,0.0
586,4_70,4,70,0.0,0.0,0.9746441670909999,0.223760469153,0.0,0.0,-0.046425758103,0.0,0.0,0.0
587,4_71,4,71,0.0,0.0,0.9744877153120001,0.224440844558,0.0,0.0,-0.00942477796077,0.0,0.0,0.0
588,4_72,4,72,0.0,0.0,0.974448528153,0.224610921331,0.0,0.0,-0.0195476876223,0.0,0.0,0.0
589,4_73,4,73,0.0,0.0,0.974350430392,0.225036083316,0.0,0.0,-0.00994837673637,0.0,0.0,0.0
590,4_74,4,74,0.0,0.0,0.9742718186210001,0.225376182061,0.0,0.0,-0.0310668606855,0.0,0.0,0.0
591,4_75,4,75,0.0,0.0,0.9741930881380001,0.22571625334399997,0.0,0.0,0.013089969390000001,0.0,0.0,0.0
592,4_76,4,76,0.0,0.0,0.9741930881380001,0.22571625334399997,0.0,0.0,-0.00418879020479,0.0,0.0,0.0
593,4_77,4,77,0.0,0.0,0.973738084586,0.22767112822299998,0.0,0.0,-0.0731292956586,0.0,0.0,0.0
594,4_78,4,78,0.0,0.0,0.97361874279,0.22818094505999997,0.0,0.0,-0.0572467994654,0.0,0.0,0.0
595,4_79,4,79,0.0,0.0,0.973519087392,0.228605744643,0.0,0.0,-0.0160570291183,0.0,0.0,0.0
596,4_80,4,80,0.0,0.0,0.973519087392,0.228605744643,0.0,0.0,-0.0034906585039899997,0.0,0.0,0.0
597,4_81,4,81,0.0,0.0,0.9733792584600001,0.229200390922,0.0,0.0,0.0038397243543899996,0.0,0.0,0.0
598,4_82,4,82,0.0,0.0,0.973219009208,0.22987988193000003,0.0,0.0,-0.0668461103514,0.0,0.0,0.0
599,4_83,4,83,0.0,0.0,0.9729575925399999,0.230983815708,0.0,0.0,0.00471238898038,0.0,0.0,0.0
600,4_84,4,84,0.0,0.0,0.9729374316949999,0.231068721395,0.0,0.0,0.00261799387799,0.0,0.0,0.0
601,4_85,4,85,0.0,0.0,0.97291726344,0.231153625323,0.0,0.0,-0.0427605666739,0.0,0.0,0.0
602,4_86,4,86,0.0,0.0,0.9728163110320001,0.23157811854600002,0.0,0.0,0.012042771838799999,0.0,0.0,0.0
603,4_87,4,87,0.0,0.0,0.972593563822,0.232511848327,0.0,0.0,-0.0205948851735,0.0,0.0,0.0
604,4_88,4,88,0.0,0.0,0.972634129981,0.232342095187,0.0,0.0,-0.0300196631343,0.0,0.0,0.0
605,4_89,4,89,0.0,0.0,0.972431002928,0.233190790009,0.0,0.0,0.0132645023152,0.0,0.0,0.0
606,4_90,4,90,0.0,0.0,0.9722679680830001,0.233869618037,0.0,0.0,-0.0403171057211,0.0,0.0,0.0
607,4_91,4,91,0.0,0.0,0.972247555406,0.233954463532,0.0,0.0,-0.020071286397900002,0.0,0.0,0.0
608,4_92,4,92,0.0,0.0,0.972165830661,0.23429382769200002,0.0,0.0,-0.0469493568786,0.0,0.0,0.0
609,4_93,4,93,0.0,0.0,0.972104459366,0.234548332079,0.0,0.0,0.015358897417600001,0.0,0.0,0.0
610,4_94,4,94,0.0,0.0,0.9721249238680001,0.234463499069,0.0,0.0,-0.000174532925199,0.0,0.0,0.0
611,4_95,4,95,0.0,0.0,0.972145380966,0.234378664273,0.0,0.0,0.0115191730632,0.0,0.0,0.0
612,4_96,4,96,0.0,0.0,0.972002025815,0.234972470325,0.0,0.0,-0.05201081170940001,0.0,0.0,0.0
613,4_97,4,97,0.0,0.0,0.9718788612829999,0.235481377163,0.0,0.0,-0.0261799387799,0.0,0.0,0.0
614,4_98,4,98,0.0,0.0,0.9719199457340001,0.235311748717,0.0,0.0,0.00977384381117,0.0,0.0,0.0
615,4_99,4,99,0.0,0.0,0.9719199457340001,0.235311748717,0.0,0.0,-0.00645771823238,0.0,0.0,0.0
616,4_100,4,100,0.0,0.0,0.9718583079559999,0.235566188697,0.0,0.0,-0.0298451302091,0.0,0.0,0.0
617,4_101,4,101,0.0,0.0,0.971755430305,0.235990219443,0.0,0.0,-0.05148721293380001,0.0,0.0,0.0
618,4_102,4,102,0.0,0.0,0.971611090784,0.236583786987,0.0,0.0,0.011868238913600001,0.0,0.0,0.0
619,4_103,4,103,0.0,0.0,0.9716523676459999,0.23641420525899998,0.0,0.0,0.00453785605519,0.0,0.0,0.0
620,4_104,4,104,0.0,0.0,0.9716523676459999,0.23641420525899998,0.0,0.0,-0.0125663706144,0.0,0.0,0.0
621,4_105,4,105,0.0,0.0,0.9714663887,0.23717726625,0.0,0.0,0.005759586531579999,0.0,0.0,0.0
622,4_106,4,106,0.0,0.0,0.971404262546,0.23743158742400003,0.0,0.0,-0.034906585039900004,0.0,0.0,0.0
623,4_107,4,107,0.0,0.0,0.971300571005,0.237855419878,0.0,0.0,-0.0205948851735,0.0,0.0,0.0
624,4_108,4,108,0.0,0.0,0.971196694542,0.238279207047,0.0,0.0,0.0158824961931,0.0,0.0,0.0
625,4_109,4,109,0.0,0.0,0.971155092183,0.238448709217,0.0,0.0,-0.0305432619099,0.0,0.0,0.0
626,4_110,4,110,0.0,0.0,0.971092633177,0.238702948851,0.0,0.0,-0.014137166941200001,0.0,0.0,0.0
627,4_111,4,111,0.0,0.0,0.970821208427,0.23980446465500002,0.0,0.0,-0.012217304764,0.0,0.0,0.0
628,4_112,4,112,0.0,0.0,0.970737441733,0.24014333056899997,0.0,0.0,-0.028972465583099998,0.0,0.0,0.0
629,4_113,4,113,0.0,0.0,0.970758394496,0.24005861683200003,0.0,0.0,0.00645771823238,0.0,0.0,0.0
630,4_114,4,114,0.0,0.0,0.970611569919,0.24065157456300001,0.0,0.0,-0.000698131700798,0.0,0.0,0.0
631,4_115,4,115,0.0,0.0,0.970632567035,0.240566871809,0.0,0.0,0.009075712110370001,0.0,0.0,0.0
632,4_116,4,116,0.0,0.0,0.970590565411,0.240736275485,0.0,0.0,-0.0239110107523,0.0,0.0,0.0
633,4_117,4,117,0.0,0.0,0.970653556759,0.240482167222,0.0,0.0,-0.014660765716799999,0.0,0.0,0.0
634,4_118,4,118,0.0,0.0,0.9705485342219999,0.240905671828,0.0,0.0,-0.05148721293380001,0.0,0.0,0.0
635,4_119,4,119,0.0,0.0,0.970380113833,0.241583183765,0.0,0.0,0.00314159265359,0.0,0.0,0.0
636,4_120,4,120,0.0,0.0,0.970380113833,0.241583183765,0.0,0.0,-0.00279252680319,0.0,0.0,0.0
637,4_121,4,121,0.0,0.0,0.970337934833,0.24175254336399998,0.0,0.0,0.0129154364648,0.0,0.0,0.0
638,4_122,4,122,0.0,0.0,0.970359028028,0.241667864485,0.0,0.0,-0.000349065850399,0.0,0.0,0.0
639,4_123,4,123,0.0,0.0,0.969999438853,0.24310715461500002,0.0,0.0,-0.0298451302091,0.0,0.0,0.0
640,4_124,4,124,0.0,0.0,0.9699569938760001,0.243276447751,0.0,0.0,-0.012391837689200002,0.0,0.0,0.0
641,4_125,4,125,0.0,0.0,0.969935760308,0.243361091541,0.0,0.0,-0.007853981633970001,0.0,0.0,0.0
642,4_126,4,126,0.0,0.0,0.9699569938760001,0.243276447751,0.0,0.0,-0.0183259571459,0.0,0.0,0.0
643,4_127,4,127,0.0,0.0,0.969744325821,0.244122802168,0.0,0.0,-0.0010471975512,0.0,0.0,0.0
644,4_128,4,128,0.0,0.0,0.9696803813889999,0.24437667226999998,0.0,0.0,-0.0216420827247,0.0,0.0,0.0
645,5_0,5,0,0.0,0.0,0.969701703584,0.24429205076299998,0.0,0.0,0.00157079632679,0.0,0.0,0.0
646,5_1,5,1,0.0,0.0,0.969316774365,0.24581495262800002,0.0,0.0,-0.0188495559215,0.0,0.0,0.0
647,5_2,5,2,0.0,0.0,0.969316774365,0.24581495262800002,0.0,0.0,-0.008028514559169999,0.0,0.0,0.0
648,5_3,5,3,0.0,0.0,0.969273856799,0.245984126575,0.0,0.0,0.0013962634016,0.0,0.0,0.0
649,5_4,5,4,0.0,0.0,0.9690157314069999,0.246999012723,0.0,0.0,-0.0165806278939,0.0,0.0,0.0
650,5_5,5,5,0.0,0.0,0.969037282447,0.24691444920699998,0.0,0.0,-0.00174532925199,0.0,0.0,0.0
651,5_6,5,6,0.0,0.0,0.9690157314069999,0.246999012723,0.0,0.0,0.005759586531579999,0.0,0.0,0.0
652,5_7,5,7,0.0,0.0,0.968778182954,0.24792908710499997,0.0,0.0,-0.058643062867,0.0,0.0,0.0
653,5_8,5,8,0.0,0.0,0.96873489641,0.248098167018,0.0,0.0,-0.0012217304764,0.0,0.0,0.0
654,5_9,5,9,0.0,0.0,0.968713242072,0.248182704141,0.0,0.0,0.0012217304764,0.0,0.0,0.0
655,5_10,5,10,0.0,0.0,0.968518021076,0.24894345311799998,0.0,0.0,-0.054105206811800005,0.0,0.0,0.0
656,5_11,5,11,0.0,0.0,0.9684310644140001,0.249281514511,0.0,0.0,-0.026354471705099997,0.0,0.0,0.0
657,5_12,5,12,0.0,0.0,0.968409306811,0.249366025115,0.0,0.0,-0.009599310885969999,0.0,0.0,0.0
658,5_13,5,13,0.0,0.0,0.9684310644140001,0.249281514511,0.0,0.0,0.015533430342700001,0.0,0.0,0.0
659,5_14,5,14,0.0,0.0,0.9684310644140001,0.249281514511,0.0,0.0,-0.012391837689200002,0.0,0.0,0.0
660,5_15,5,15,0.0,0.0,0.968082057869,0.250633455931,0.0,0.0,-0.0418879020479,0.0,0.0,0.0
661,5_16,5,16,0.0,0.0,0.9680382993340001,0.250802414306,0.0,0.0,-0.014137166941200001,0.0,0.0,0.0
662,5_17,5,17,0.0,0.0,0.9680382993340001,0.250802414306,0.0,0.0,0.00837758040957,0.0,0.0,0.0
663,5_18,5,18,0.0,0.0,0.9679506938019999,0.25114030813099997,0.0,0.0,-0.0275762021815,0.0,0.0,0.0
664,5_19,5,19,0.0,0.0,0.967906846807,0.251309243572,0.0,0.0,0.0010471975512,0.0,0.0,0.0
665,5_20,5,20,0.0,0.0,0.967819064366,0.251647091481,0.0,0.0,-0.015358897417600001,0.0,0.0,0.0
666,5_21,5,21,0.0,0.0,0.9677311639980001,0.25198490872699997,0.0,0.0,-0.023561944901900004,0.0,0.0,0.0
667,5_22,5,22,0.0,0.0,0.967687169596,0.252153805839,0.0,0.0,0.0010471975512,0.0,0.0,0.0
668,5_23,5,23,0.0,0.0,0.96759909236,0.25249157701499997,0.0,0.0,-0.0167551608191,0.0,0.0,0.0
669,5_24,5,24,0.0,0.0,0.967532957062,0.25274488521,0.0,0.0,0.008901179185170001,0.0,0.0,0.0
670,5_25,5,25,0.0,0.0,0.967378383486,0.253335870266,0.0,0.0,-0.030892327760299997,0.0,0.0,0.0
671,5_26,5,26,0.0,0.0,0.967356272077,0.253420288991,0.0,0.0,-0.0190240888467,0.0,0.0,0.0
672,5_27,5,27,0.0,0.0,0.9672898936509999,0.25367353358399997,0.0,0.0,-0.027227136331099997,0.0,0.0,0.0
673,5_28,5,28,0.0,0.0,0.967334153302,0.253504705786,0.0,0.0,0.0144862327916,0.0,0.0,0.0
674,5_29,5,29,0.0,0.0,0.967201285954,0.254011165991,0.0,0.0,-0.000349065850399,0.0,0.0,0.0
675,5_30,5,30,0.0,0.0,0.967201285954,0.254011165991,0.0,0.0,-0.0298451302091,0.0,0.0,0.0
676,5_31,5,31,0.0,0.0,0.967090360608,0.254433162972,0.0,0.0,-0.0167551608191,0.0,0.0,0.0
677,5_32,5,32,0.0,0.0,0.967068153443,0.254517556558,0.0,0.0,-0.030717794835099996,0.0,0.0,0.0
678,5_33,5,33,0.0,0.0,0.9670237170200001,0.254686337914,0.0,0.0,0.0261799387799,0.0,0.0,0.0
679,5_34,5,34,0.0,0.0,0.967068153443,0.254517556558,0.0,0.0,0.015533430342700001,0.0,0.0,0.0
680,5_35,5,35,0.0,0.0,0.9669570071539999,0.2549394954,0.0,0.0,0.000174532925199,0.0,0.0,0.0
681,5_36,5,36,0.0,0.0,0.967001487762,0.254770725683,0.0,0.0,0.014835298642,0.0,0.0,0.0
682,5_37,5,37,0.0,0.0,0.9666895049940001,0.25595195043900004,0.0,0.0,-0.028972465583099998,0.0,0.0,0.0
683,5_38,5,38,0.0,0.0,0.966667165292,0.256036309038,0.0,0.0,0.00610865238198,0.0,0.0,0.0
684,5_39,5,39,0.0,0.0,0.9666895049940001,0.25595195043900004,0.0,0.0,-0.011868238913600001,0.0,0.0,0.0
685,5_40,5,40,0.0,0.0,0.966711837335,0.255867589891,0.0,0.0,-0.014660765716799999,0.0,0.0,0.0
686,5_41,5,41,0.0,0.0,0.966600102017,0.256289373133,0.0,0.0,-0.054279739737,0.0,0.0,0.0
687,5_42,5,42,0.0,0.0,0.9665105812620001,0.25662676459899997,0.0,0.0,0.0319395253115,0.0,0.0,0.0
688,5_43,5,43,0.0,0.0,0.966555356361,0.256458072772,0.0,0.0,0.004363323129989999,0.0,0.0,0.0
689,5_44,5,44,0.0,0.0,0.966376079321,0.257132793155,0.0,0.0,0.00645771823238,0.0,0.0,0.0
690,5_45,5,45,0.0,0.0,0.966151320688,0.257976017359,0.0,0.0,-0.0671951762018,0.0,0.0,0.0
691,5_46,5,46,0.0,0.0,0.9661062806640001,0.25814463864500004,0.0,0.0,0.00977384381117,0.0,0.0,0.0
692,5_47,5,47,0.0,0.0,0.9658806391320001,0.25898762702,0.0,0.0,-0.00296705972839,0.0,0.0,0.0
693,5_48,5,48,0.0,0.0,0.965835422553,0.259156201047,0.0,0.0,-0.047298422729,0.0,0.0,0.0
694,5_49,5,49,0.0,0.0,0.965812803231,0.259240485101,0.0,0.0,0.0144862327916,0.0,0.0,0.0
695,5_50,5,50,0.0,0.0,0.9656088983700001,0.25999895266899997,0.0,0.0,-0.0226892802759,0.0,0.0,0.0
696,5_51,5,51,0.0,0.0,0.9656542620399999,0.259830418164,0.0,0.0,0.020943951023900002,0.0,0.0,0.0
697,5_52,5,52,0.0,0.0,0.965358872442,0.260925750737,0.0,0.0,-0.062133721371,0.0,0.0,0.0
698,5_53,5,53,0.0,0.0,0.965313317604,0.26109423367,0.0,0.0,-0.0188495559215,0.0,0.0,0.0
699,5_54,5,54,0.0,0.0,0.965244930214,0.261346943155,0.0,0.0,-0.0240855436775,0.0,0.0,0.0
700,5_55,5,55,0.0,0.0,0.9652905291580001,0.261178472154,0.0,0.0,-0.007853981633970001,0.0,0.0,0.0
701,5_56,5,56,0.0,0.0,0.964833216741,0.262862823299,0.0,0.0,-0.0225147473507,0.0,0.0,0.0
702,5_57,5,57,0.0,0.0,0.964833216741,0.262862823299,0.0,0.0,-0.00157079632679,0.0,0.0,0.0
703,5_58,5,58,0.0,0.0,0.9646724629729999,0.26345215729000004,0.0,0.0,-0.00994837673637,0.0,0.0,0.0
704,5_59,5,59,0.0,0.0,0.964741401527,0.263199597605,0.0,0.0,-0.0239110107523,0.0,0.0,0.0
705,5_60,5,60,0.0,0.0,0.964603458302,0.263704698919,0.0,0.0,-0.053058009260599996,0.0,0.0,0.0
706,5_61,5,61,0.0,0.0,0.964488303601,0.26412556146099997,0.0,0.0,-0.0191986217719,0.0,0.0,0.0
707,5_62,5,62,0.0,0.0,0.964396047629,0.264462215293,0.0,0.0,-0.0317649923863,0.0,0.0,0.0
708,5_63,5,63,0.0,0.0,0.9643498755769999,0.264630530127,0.0,0.0,0.0134390352404,0.0,0.0,0.0
709,5_64,5,64,0.0,0.0,0.964164893623,0.265303708803,0.0,0.0,-0.0219911485751,0.0,0.0,0.0
710,5_65,5,65,0.0,0.0,0.964164893623,0.265303708803,0.0,0.0,-0.00645771823238,0.0,0.0,0.0
711,5_66,5,66,0.0,0.0,0.9641185747059999,0.26547198328,0.0,0.0,0.00872664625997,0.0,0.0,0.0
712,5_67,5,67,0.0,0.0,0.9639097761609999,0.266229118282,0.0,0.0,-0.0256563400043,0.0,0.0,0.0
713,5_68,5,68,0.0,0.0,0.9638400445090001,0.266481460145,0.0,0.0,-0.00977384381117,0.0,0.0,0.0
714,5_69,5,69,0.0,0.0,0.96379352004,0.26664967790800004,0.0,0.0,-0.00453785605519,0.0,0.0,0.0
715,5_70,5,70,0.0,0.0,0.963677080427,0.267070186767,0.0,0.0,-0.0280998009571,0.0,0.0,0.0
716,5_71,5,71,0.0,0.0,0.963607128592,0.267322467681,0.0,0.0,-0.0127409035396,0.0,0.0,0.0
717,5_72,5,72,0.0,0.0,0.9634903954359999,0.267742895148,0.0,0.0,0.0150098315672,0.0,0.0,0.0
718,5_73,5,73,0.0,0.0,0.963420267493,0.267995127166,0.0,0.0,-0.0176278254451,0.0,0.0,0.0
719,5_74,5,74,0.0,0.0,0.9633968768369999,0.26807920042399996,0.0,0.0,-0.000698131700798,0.0,0.0,0.0
720,5_75,5,75,0.0,0.0,0.963350073517,0.268247340815,0.0,0.0,-0.014835298642,0.0,0.0,0.0
721,5_76,5,76,0.0,0.0,0.9632563788420001,0.268583597078,0.0,0.0,0.007853981633970001,0.0,0.0,0.0
722,5_77,5,77,0.0,0.0,0.9632563788420001,0.268583597078,0.0,0.0,-0.00418879020479,0.0,0.0,0.0
723,5_78,5,78,0.0,0.0,0.963092130747,0.269171966767,0.0,0.0,-0.0132645023152,0.0,0.0,0.0
724,5_79,5,79,0.0,0.0,0.963045136708,0.26934005395300004,0.0,0.0,-0.014660765716799999,0.0,0.0,0.0
725,5_80,5,80,0.0,0.0,0.96290397858,0.269844266264,0.0,0.0,-0.00942477796077,0.0,0.0,0.0
726,5_81,5,81,0.0,0.0,0.96290397858,0.269844266264,0.0,0.0,0.00226892802759,0.0,0.0,0.0
727,5_82,5,82,0.0,0.0,0.9628097265000001,0.270180366714,0.0,0.0,-0.0205948851735,0.0,0.0,0.0
728,5_83,5,83,0.0,0.0,0.962786145149,0.270264386684,0.0,0.0,-0.00418879020479,0.0,0.0,0.0
729,5_84,5,84,0.0,0.0,0.962691746426,0.270600445976,0.0,0.0,-0.0115191730632,0.0,0.0,0.0
730,5_85,5,85,0.0,0.0,0.962668128417,0.270684455649,0.0,0.0,0.0034906585039899997,0.0,0.0,0.0
731,5_86,5,86,0.0,0.0,0.962668128417,0.270684455649,0.0,0.0,0.00523598775598,0.0,0.0,0.0
732,5_87,5,87,0.0,0.0,0.962407846499,0.271608425858,0.0,0.0,-0.017278759594700002,0.0,0.0,0.0
733,5_88,5,88,0.0,0.0,0.9624789204369999,0.271356458768,0.0,0.0,-0.0158824961931,0.0,0.0,0.0
734,5_89,5,89,0.0,0.0,0.962384140528,0.271692410752,0.0,0.0,0.00261799387799,0.0,0.0,0.0
735,5_90,5,90,0.0,0.0,0.9621942289309999,0.272364215364,0.0,0.0,-0.026354471705099997,0.0,0.0,0.0
736,5_91,5,91,0.0,0.0,0.9621942289309999,0.272364215364,0.0,0.0,0.005759586531579999,0.0,0.0,0.0
737,5_92,5,92,0.0,0.0,0.9621228911740001,0.272616107888,0.0,0.0,0.012391837689200002,0.0,0.0,0.0
738,5_93,5,93,0.0,0.0,0.9619561799690001,0.27320378441599996,0.0,0.0,-0.0478220215046,0.0,0.0,0.0
739,5_94,5,94,0.0,0.0,0.961932334778,0.27328772988899996,0.0,0.0,0.010471975512,0.0,0.0,0.0
740,5_95,5,95,0.0,0.0,0.961741309549,0.27395921869199996,0.0,0.0,-0.00453785605519,0.0,0.0,0.0
741,5_96,5,96,0.0,0.0,0.961621680742,0.27437883140999997,0.0,0.0,-0.041189770347099995,0.0,0.0,0.0
742,5_97,5,97,0.0,0.0,0.961573777956,0.274546661875,0.0,0.0,0.025830872929500003,0.0,0.0,0.0
743,5_98,5,98,0.0,0.0,0.961381873914,0.275217900052,0.0,0.0,-0.0403171057211,0.0,0.0,0.0
744,5_99,5,99,0.0,0.0,0.961213573504,0.275805123434,0.0,0.0,-0.06143558967019999,0.0,0.0,0.0
745,5_100,5,100,0.0,0.0,0.961117240795,0.276140633457,0.0,0.0,-0.0345575191895,0.0,0.0,0.0
746,5_101,5,101,0.0,0.0,0.9611413349519999,0.276056759104,0.0,0.0,0.0160570291183,0.0,0.0,0.0
747,5_102,5,102,0.0,0.0,0.9611413349519999,0.276056759104,0.0,0.0,0.010646508437200001,0.0,0.0,0.0
748,5_103,5,103,0.0,0.0,0.961189501306,0.275889004092,0.0,0.0,0.014835298642,0.0,0.0,0.0
749,5_104,5,104,0.0,0.0,0.960851722038,0.277063112407,0.0,0.0,-0.013089969390000001,0.0,0.0,0.0
750,5_105,5,105,0.0,0.0,0.960900064038,0.276895407927,0.0,0.0,-0.012042771838799999,0.0,0.0,0.0
751,5_106,5,106,0.0,0.0,0.960875896697,0.276979261222,0.0,0.0,-0.00645771823238,0.0,0.0,0.0
752,5_107,5,107,0.0,0.0,0.960827540061,0.277146961483,0.0,0.0,-0.020071286397900002,0.0,0.0,0.0
753,5_108,5,108,0.0,0.0,0.9607549502299999,0.277398496044,0.0,0.0,-0.0286233997327,0.0,0.0,0.0
754,5_109,5,109,0.0,0.0,0.9607791541580001,0.277314653302,0.0,0.0,0.004363323129989999,0.0,0.0,0.0
755,5_110,5,110,0.0,0.0,0.960658061358,0.27773384588100003,0.0,0.0,-0.0115191730632,0.0,0.0,0.0
756,5_111,5,111,0.0,0.0,0.960536785663,0.27815298558400003,0.0,0.0,-0.0185004900711,0.0,0.0,0.0
757,5_112,5,112,0.0,0.0,0.960536785663,0.27815298558400003,0.0,0.0,0.004014257279590001,0.0,0.0,0.0
758,5_113,5,113,0.0,0.0,0.9604396334370001,0.278488259221,0.0,0.0,-0.00366519142919,0.0,0.0,0.0
759,5_114,5,114,0.0,0.0,0.9603910134379999,0.27865588331700003,0.0,0.0,-0.0125663706144,0.0,0.0,0.0
760,5_115,5,115,0.0,0.0,0.9603423641840001,0.27882349892499997,0.0,0.0,-0.0010471975512,0.0,0.0,0.0
761,5_116,5,116,0.0,0.0,0.9602206130679999,0.279242500775,0.0,0.0,0.0,0.0,0.0,0.0
762,5_117,5,117,0.0,0.0,0.960196240907,0.279326294767,0.0,0.0,-0.020071286397900002,0.0,0.0,0.0
763,5_118,5,118,0.0,0.0,0.9600742704180001,0.279745232811,0.0,0.0,0.00366519142919,0.0,0.0,0.0
764,5_119,5,119,0.0,0.0,0.959976562422,0.280080344903,0.0,0.0,-0.009599310885969999,0.0,0.0,0.0
765,5_120,5,120,0.0,0.0,0.960001000387,0.279996570078,0.0,0.0,-0.010646508437200001,0.0,0.0,0.0
766,5_121,5,121,0.0,0.0,0.959829781111,0.28058294904,0.0,0.0,0.00157079632679,0.0,0.0,0.0
767,5_122,5,122,0.0,0.0,0.959756291775,0.28083422227,0.0,0.0,-0.00523598775598,0.0,0.0,0.0
768,5_123,5,123,0.0,0.0,0.9598052919750001,0.280666708921,0.0,0.0,-0.0136135681656,0.0,0.0,0.0
769,5_124,5,124,0.0,0.0,0.959584560852,0.281420451592,0.0,0.0,-0.014137166941200001,0.0,0.0,0.0
770,5_125,5,125,0.0,0.0,0.959535429102,0.281587926405,0.0,0.0,0.00296705972839,0.0,0.0,0.0
771,5_126,5,126,0.0,0.0,0.959535429102,0.281587926405,0.0,0.0,0.00366519142919,0.0,0.0,0.0
772,5_127,5,127,0.0,0.0,0.959535429102,0.281587926405,0.0,0.0,-0.0164060949687,0.0,0.0,0.0
773,5_128,5,128,0.0,0.0,0.9594370779170001,0.281922850294,0.0,0.0,-0.0366519142919,0.0,0.0,0.0
774,6_0,6,0,0.0,0.0,0.959363237809,0.282174020669,0.0,0.0,0.0109955742876,0.0,0.0,0.0
775,6_1,6,1,0.0,0.0,0.959387858485,0.282090299359,0.0,0.0,0.005410520681180001,0.0,0.0,0.0
776,6_2,6,2,0.0,0.0,0.959363237809,0.282174020669,0.0,0.0,-0.00628318530718,0.0,0.0,0.0
777,6_3,6,3,0.0,0.0,0.959091928225,0.283094813118,0.0,0.0,-0.024609142453099996,0.0,0.0,0.0
778,6_4,6,4,0.0,0.0,0.9590672198899999,0.2831785086,0.0,0.0,-0.008901179185170001,0.0,0.0,0.0
779,6_5,6,5,0.0,0.0,0.959042504251,0.283262201925,0.0,0.0,0.00820304748437,0.0,0.0,0.0
780,6_6,6,6,0.0,0.0,0.9590672198899999,0.2831785086,0.0,0.0,0.00837758040957,0.0,0.0,0.0
781,6_7,6,7,0.0,0.0,0.958993051064,0.283429582104,0.0,0.0,-0.0321140582367,0.0,0.0,0.0
782,6_8,6,8,0.0,0.0,0.958869290293,0.283847994766,0.0,0.0,-0.00523598775598,0.0,0.0,0.0
783,6_9,6,9,0.0,0.0,0.958819734868,0.28401534470400003,0.0,0.0,-0.0109955742876,0.0,0.0,0.0
784,6_10,6,10,0.0,0.0,0.9587453469670001,0.284266353388,0.0,0.0,-0.012217304764,0.0,0.0,0.0
785,6_11,6,11,0.0,0.0,0.9585466579899999,0.28493561457899996,0.0,0.0,-0.00610865238198,0.0,0.0,0.0
786,6_12,6,12,0.0,0.0,0.9585466579899999,0.28493561457899996,0.0,0.0,-0.00994837673637,0.0,0.0,0.0
787,6_13,6,13,0.0,0.0,0.958521789017,0.28501926247,0.0,0.0,-0.00471238898038,0.0,0.0,0.0
788,6_14,6,14,0.0,0.0,0.958272697843,0.285855621895,0.0,0.0,-0.004363323129989999,0.0,0.0,0.0
789,6_15,6,15,0.0,0.0,0.958322574465,0.285688367405,0.0,0.0,-0.004363323129989999,0.0,0.0,0.0
790,6_16,6,16,0.0,0.0,0.958372421895,0.285521104212,0.0,0.0,-0.0005235987755980001,0.0,0.0,0.0
791,6_17,6,17,0.0,0.0,0.958097899798,0.286440944004,0.0,0.0,-0.0254818070791,0.0,0.0,0.0
792,6_18,6,18,0.0,0.0,0.958097899798,0.286440944004,0.0,0.0,-0.00471238898038,0.0,0.0,0.0
793,6_19,6,19,0.0,0.0,0.958072899462,0.286524552728,0.0,0.0,-0.014660765716799999,0.0,0.0,0.0
794,6_20,6,20,0.0,0.0,0.957947788344,0.286942563604,0.0,0.0,-0.0190240888467,0.0,0.0,0.0
795,6_21,6,21,0.0,0.0,0.957922744234,0.287026159226,0.0,0.0,0.00593411945678,0.0,0.0,0.0
796,6_22,6,22,0.0,0.0,0.957872634129,0.28719334391199997,0.0,0.0,-0.026354471705099997,0.0,0.0,0.0
797,6_23,6,23,0.0,0.0,0.957697018991,0.287778421386,0.0,0.0,0.009599310885969999,0.0,0.0,0.0
798,6_24,6,24,0.0,0.0,0.957722128749,0.28769484546,0.0,0.0,0.00279252680319,0.0,0.0,0.0
799,6_25,6,25,0.0,0.0,0.957596507027,0.288112703171,0.0,0.0,0.022863813201099998,0.0,0.0,0.0
800,6_26,6,26,0.0,0.0,0.95767190194,0.287861995122,0.0,0.0,0.023561944901900004,0.0,0.0,0.0
801,6_27,6,27,0.0,0.0,0.9575210464830001,0.288363391474,0.0,0.0,-0.00314159265359,0.0,0.0,0.0
802,6_28,6,28,0.0,0.0,0.9574958783840001,0.288446949851,0.0,0.0,-0.0291469985083,0.0,0.0,0.0
803,6_29,6,29,0.0,0.0,0.957420330337,0.288697611798,0.0,0.0,0.008028514559169999,0.0,0.0,0.0
804,6_30,6,30,0.0,0.0,0.957269037387,0.289198876314,0.0,0.0,-0.011344640138,0.0,0.0,0.0
805,6_31,6,31,0.0,0.0,0.957269037387,0.289198876314,0.0,0.0,-0.021816615649900003,0.0,0.0,0.0
806,6_32,6,32,0.0,0.0,0.957269037387,0.289198876314,0.0,0.0,0.0165806278939,0.0,0.0,0.0
807,6_33,6,33,0.0,0.0,0.957066905219,0.289867105645,0.0,0.0,-0.009075712110370001,0.0,0.0,0.0
808,6_34,6,34,0.0,0.0,0.956584972007,0.291453583493,0.0,0.0,-0.219562419901,0.0,0.0,0.0
809,6_35,6,35,0.0,0.0,0.953559370834,0.301205123289,0.0,0.0,-0.253596340315,0.0,0.0,0.0
810,6_36,6,36,0.0,0.0,0.951674837042,0.307107480437,0.0,0.0,-0.20664698343600002,0.0,0.0,0.0
811,6_37,6,37,0.0,0.0,0.9481573848899999,0.317801153992,0.0,0.0,-0.578053048261,0.0,0.0,0.0
812,6_38,6,38,0.0,0.0,0.9461701277869999,0.323669722533,0.0,0.0,-0.679980276577,0.0,0.0,0.0
813,6_39,6,39,0.0,0.0,0.94058480613,0.33955886452399997,0.0,0.0,-0.541401133969,0.0,0.0,0.0
814,6_40,6,40,0.0,0.0,0.938161127939,0.346198928399,0.0,0.0,-0.495498974641,0.0,0.0,0.0
815,6_41,6,41,0.0,0.0,0.933079140576,0.359671123975,0.0,0.0,-0.5558873667600001,0.0,0.0,0.0
816,6_42,6,42,0.0,0.0,0.9261670546780001,0.377113493301,0.0,0.0,-0.585208898194,0.0,0.0,0.0
817,6_43,6,43,0.0,0.0,0.920026798459,0.391855445435,0.0,0.0,-0.554142037508,0.0,0.0,0.0
818,6_44,6,44,0.0,0.0,0.912834177233,0.40833046038099996,0.0,0.0,-0.5372123437640001,0.0,0.0,0.0
819,6_45,6,45,0.0,0.0,0.910863824921,0.41270702980400004,0.0,0.0,-0.5153957281139999,0.0,0.0,0.0
820,6_46,6,46,0.0,0.0,0.9050869773970001,0.42522648476499997,0.0,0.0,-0.495324441716,0.0,0.0,0.0
821,6_47,6,47,0.0,0.0,0.903110579136,0.429408059837,0.0,0.0,-0.501607627023,0.0,0.0,0.0
822,6_48,6,48,0.0,0.0,0.895478827032,0.445104111795,0.0,0.0,-0.576133186083,0.0,0.0,0.0
823,6_49,6,49,0.0,0.0,0.893136003,0.449786705168,0.0,0.0,-0.5656612105709999,0.0,0.0,0.0
824,6_50,6,50,0.0,0.0,0.8850282666249999,0.465537288812,0.0,0.0,-0.542971930295,0.0,0.0,0.0
825,6_51,6,51,0.0,0.0,0.8778576241060001,0.47892169693899994,0.0,0.0,-0.5324999547829999,0.0,0.0,0.0
826,6_52,6,52,0.0,0.0,0.87550669801,0.48320598272200005,0.0,0.0,-0.519060919543,0.0,0.0,0.0
827,6_53,6,53,0.0,0.0,0.8679388771359999,0.49667102347,0.0,0.0,-0.471587963889,0.0,0.0,0.0
828,6_54,6,54,0.0,0.0,0.865632437639,0.500680020479,0.0,0.0,-0.513999464712,0.0,0.0,0.0
829,6_55,6,55,0.0,0.0,0.8575715462469999,0.514364698505,0.0,0.0,-0.597775268808,0.0,0.0,0.0
830,6_56,6,56,0.0,0.0,0.847353707106,0.5310289022770001,0.0,0.0,-0.572293461729,0.0,0.0,0.0
831,6_57,6,57,0.0,0.0,0.839430209734,0.543467499475,0.0,0.0,-0.49480084294,0.0,0.0,0.0
832,6_58,6,58,0.0,0.0,0.831081548518,0.556150572878,0.0,0.0,-0.46809730538500005,0.0,0.0,0.0
833,6_59,6,59,0.0,0.0,0.823185919115,0.5677719106920001,0.0,0.0,-0.545938990024,0.0,0.0,0.0
834,6_60,6,60,0.0,0.0,0.812236269792,0.583328588391,0.0,0.0,-0.587303293296,0.0,0.0,0.0
835,6_61,6,61,0.0,0.0,0.801149373145,0.5984644366290001,0.0,0.0,-0.563915881319,0.0,0.0,0.0
836,6_62,6,62,0.0,0.0,0.792342885548,0.6100760212640001,0.0,0.0,-0.500385896547,0.0,0.0,0.0
837,6_63,6,63,0.0,0.0,0.7825538292219999,0.622582929713,0.0,0.0,-0.519933584169,0.0,0.0,0.0
838,6_64,6,64,0.0,0.0,0.772456546514,0.635067621397,0.0,0.0,-0.614355896702,0.0,0.0,0.0
839,6_65,6,65,0.0,0.0,0.759384877298,0.650641689512,0.0,0.0,-0.625002405139,0.0,0.0,0.0
840,6_66,6,66,0.0,0.0,0.7487243771340001,0.662881442707,0.0,0.0,-0.568802803225,0.0,0.0,0.0
841,6_67,6,67,0.0,0.0,0.7369234975560001,0.6759761525,0.0,0.0,-0.5283111645790001,0.0,0.0,0.0
842,6_68,6,68,0.0,0.0,0.7337891541480001,0.6793772716650001,0.0,0.0,-0.48991392103500003,0.0,0.0,0.0
843,6_69,6,69,0.0,0.0,0.724893632131,0.6888608147480001,0.0,0.0,-0.482409005251,0.0,0.0,0.0
844,6_70,6,70,0.0,0.0,0.7122098448280001,0.701966620952,0.0,0.0,-0.6312855904460001,0.0,0.0,0.0
845,6_71,6,71,0.0,0.0,0.70803177573,0.706180575035,0.0,0.0,-0.638092374529,0.0,0.0,0.0
846,6_72,6,72,0.0,0.0,0.6959754622840001,0.718065565181,0.0,0.0,-0.593761011528,0.0,0.0,0.0
847,6_73,6,73,0.0,0.0,0.6826363268000001,0.7307582673720001,0.0,0.0,-0.544542726622,0.0,0.0,0.0
848,6_74,6,74,0.0,0.0,0.6790570310840001,0.734085518544,0.0,0.0,-0.521329847571,0.0,0.0,0.0
849,6_75,6,75,0.0,0.0,0.6677675994919999,0.744369822782,0.0,0.0,-0.463384916404,0.0,0.0,0.0
850,6_76,6,76,0.0,0.0,0.657177940834,0.753735466912,0.0,0.0,-0.570897198327,0.0,0.0,0.0
851,6_77,6,77,0.0,0.0,0.6415165769160001,0.767109171854,0.0,0.0,-0.644201026911,0.0,0.0,0.0
852,6_78,6,78,0.0,0.0,0.6281667797070001,0.778078721514,0.0,0.0,-0.596204472481,0.0,0.0,0.0
853,6_79,6,79,0.0,0.0,0.614354058337,0.789030475334,0.0,0.0,-0.51155600376,0.0,0.0,0.0
854,6_80,6,80,0.0,0.0,0.60411242965,0.7968990979680001,0.0,0.0,-0.467050107834,0.0,0.0,0.0
855,6_81,6,81,0.0,0.0,0.590746499768,0.806857219719,0.0,0.0,-0.56461401302,0.0,0.0,0.0
856,6_82,6,82,0.0,0.0,0.5767888080100001,0.8168933045110001,0.0,0.0,-0.629365728269,0.0,0.0,0.0
857,6_83,6,83,0.0,0.0,0.560205346355,0.8283537709909999,0.0,0.0,-0.604931118741,0.0,0.0,0.0
858,6_84,6,84,0.0,0.0,0.555715343381,0.8313726343410001,0.0,0.0,-0.581194640914,0.0,0.0,0.0
859,6_85,6,85,0.0,0.0,0.542588152386,0.839998867196,0.0,0.0,-0.540528469343,0.0,0.0,0.0
860,6_86,6,86,0.0,0.0,0.5364897632500001,0.843906827753,0.0,0.0,-0.514173997638,0.0,0.0,0.0
861,6_87,6,87,0.0,0.0,0.5245803958030001,0.85136091544,0.0,0.0,-0.525693170701,0.0,0.0,0.0
862,6_88,6,88,0.0,0.0,0.5089662999,0.86078644597,0.0,0.0,-0.594459143229,0.0,0.0,0.0
863,6_89,6,89,0.0,0.0,0.49583763325400004,0.868415247131,0.0,0.0,-0.42516220578599995,0.0,0.0,0.0
864,6_90,6,90,0.0,0.0,0.489382451749,0.872069272432,0.0,0.0,-0.216769893098,0.0,0.0,0.0
865,6_91,6,91,0.0,0.0,0.48785965913900003,0.8729220772700002,0.0,0.0,-0.183434104385,0.0,0.0,0.0
866,6_92,6,92,0.0,0.0,0.48267107599200004,0.875801708379,0.0,0.0,-0.292691715559,0.0,0.0,0.0
867,6_93,6,93,0.0,0.0,0.478232081533,0.878233497535,0.0,0.0,0.029670597283900004,0.0,0.0,0.0
868,6_94,6,94,0.0,0.0,0.47853861371399997,0.8780665095450001,0.0,0.0,0.0277507351067,0.0,0.0,0.0
869,6_95,6,95,0.0,0.0,0.47807879358800004,0.878316951403,0.0,0.0,0.00279252680319,0.0,0.0,0.0
870,6_96,6,96,0.0,0.0,0.476928670128,0.8789420024150001,0.0,0.0,-0.045553093477099994,0.0,0.0,0.0
871,6_97,6,97,0.0,0.0,0.476851966153,0.8789836189460001,0.0,0.0,0.0,0.0,0.0,0.0
872,6_98,6,98,0.0,0.0,0.47715876026,0.878817112662,0.0,0.0,-0.0212930168743,0.0,0.0,0.0
873,6_99,6,99,0.0,0.0,0.47639166606100003,0.879233177551,0.0,0.0,-0.0251327412287,0.0,0.0,0.0
874,6_100,6,100,0.0,0.0,0.47608472676700003,0.879399416044,0.0,0.0,-0.0329867228627,0.0,0.0,0.0
875,6_101,6,101,0.0,0.0,0.47570097107799997,0.879607063475,0.0,0.0,-0.0005235987755980001,0.0,0.0,0.0
876,6_102,6,102,0.0,0.0,0.47554744344,0.8796900755589999,0.0,0.0,-0.022340214425499997,0.0,0.0,0.0
877,6_103,6,103,0.0,0.0,0.474933188073,0.880021855903,0.0,0.0,-0.015358897417600001,0.0,0.0,0.0
878,6_104,6,104,0.0,0.0,0.474011371098,0.880518722157,0.0,0.0,-0.04485496177630001,0.0,0.0,0.0
879,6_105,6,105,0.0,0.0,0.473319667185,0.880890738205,0.0,0.0,-0.0219911485751,0.0,0.0,0.0
880,6_106,6,106,0.0,0.0,0.472627671304,0.8812622108759999,0.0,0.0,-0.024609142453099996,0.0,0.0,0.0
881,6_107,6,107,0.0,0.0,0.472166178724,0.881509557333,0.0,0.0,-0.0287979326579,0.0,0.0,0.0
882,6_108,6,108,0.0,0.0,0.471550653943,0.881838976665,0.0,0.0,-0.00523598775598,0.0,0.0,0.0
883,6_109,6,109,0.0,0.0,0.471088859517,0.882085759118,0.0,0.0,-0.0443313630007,0.0,0.0,0.0
884,6_110,6,110,0.0,0.0,0.470703932165,0.882291226435,0.0,0.0,-0.0178023583703,0.0,0.0,0.0
885,6_111,6,111,0.0,0.0,0.469702701834,0.8828246552339999,0.0,0.0,-0.0165806278939,0.0,0.0,0.0
886,6_112,6,112,0.0,0.0,0.46931745221,0.8830295176559999,0.0,0.0,-0.0452040276267,0.0,0.0,0.0
887,6_113,6,113,0.0,0.0,0.468392488698,0.883520501477,0.0,0.0,0.00261799387799,0.0,0.0,0.0
888,6_114,6,114,0.0,0.0,0.467929814261,0.883765630089,0.0,0.0,-0.0321140582367,0.0,0.0,0.0
889,6_115,6,115,0.0,0.0,0.467544154228,0.8839697188519999,0.0,0.0,-0.0357792496659,0.0,0.0,0.0
890,6_116,6,116,0.0,0.0,0.467081244696,0.884214403215,0.0,0.0,-0.0635299847726,0.0,0.0,0.0
891,6_117,6,117,0.0,0.0,0.466463832817,0.884540271935,0.0,0.0,0.000872664625997,0.0,0.0,0.0
892,6_118,6,118,0.0,0.0,0.465614520325,0.884987637463,0.0,0.0,-0.026529004630299998,0.0,0.0,0.0
893,6_119,6,119,0.0,0.0,0.465537288812,0.8850282666249999,0.0,0.0,0.0034906585039899997,0.0,0.0,0.0
894,6_120,6,120,0.0,0.0,0.464610234288,0.885515290774,0.0,0.0,-0.0741764932098,0.0,0.0,0.0
895,6_121,6,121,0.0,0.0,0.46414651590000006,0.885758438728,0.0,0.0,-0.0162315620435,0.0,0.0,0.0
896,6_122,6,122,0.0,0.0,0.463837299606,0.88592040246,0.0,0.0,-0.0436332312999,0.0,0.0,0.0
897,6_123,6,123,0.0,0.0,0.463141356361,0.886284426145,0.0,0.0,-0.0157079632679,0.0,0.0,0.0
898,6_124,6,124,0.0,0.0,0.46213560075599996,0.8868092729070001,0.0,0.0,-0.028274333882299996,0.0,0.0,0.0
899,6_125,6,125,0.0,0.0,0.46205821028800004,0.886849598469,0.0,0.0,-0.00261799387799,0.0,0.0,0.0
900,6_126,6,126,0.0,0.0,0.46151637852099997,0.887131688284,0.0,0.0,-0.0438077642251,0.0,0.0,0.0
901,6_127,6,127,0.0,0.0,0.46128411217500004,0.887252482586,0.0,0.0,-0.0181514242207,0.0,0.0,0.0
902,6_128,6,128,0.0,0.0,0.460509662773,0.887654691022,0.0,0.0,-0.045553093477099994,0.0,0.0,0.0
903,7_0,7,0,0.0,0.0,0.460044824759,0.887895691628,0.0,0.0,0.00157079632679,0.0,0.0,0.0
904,7_1,7,1,0.0,0.0,0.459657363398,0.8880963395229999,0.0,0.0,-0.0342084533391,0.0,0.0,0.0
905,7_2,7,2,0.0,0.0,0.45950235434500003,0.8881765513400001,0.0,0.0,-0.00820304748437,0.0,0.0,0.0
906,7_3,7,3,0.0,0.0,0.45857200625600003,0.888657253995,0.0,0.0,-0.008901179185170001,0.0,0.0,0.0
907,7_4,7,4,0.0,0.0,0.458261778424,0.8888172716789999,0.0,0.0,-0.0322885911619,0.0,0.0,0.0
908,7_5,7,5,0.0,0.0,0.457641155285,0.8891369821289999,0.0,0.0,-0.010471975512,0.0,0.0,0.0
909,7_6,7,6,0.0,0.0,0.456632167098,0.8896555872759999,0.0,0.0,-0.0328121899375,0.0,0.0,0.0
910,7_7,7,7,0.0,0.0,0.4563215909,0.8898149277680001,0.0,0.0,-0.012217304764,0.0,0.0,0.0
911,7_8,7,8,0.0,0.0,0.455777948787,0.890093512728,0.0,0.0,-0.007679448708779999,0.0,0.0,0.0
912,7_9,7,9,0.0,0.0,0.454767876649,0.890610003519,0.0,0.0,-0.056897733614999994,0.0,0.0,0.0
913,7_10,7,10,0.0,0.0,0.45430149202500003,0.8908479973289999,0.0,0.0,-0.006981317007979999,0.0,0.0,0.0
914,7_11,7,11,0.0,0.0,0.45367945213699995,0.891164942482,0.0,0.0,-0.009599310885969999,0.0,0.0,0.0
915,7_12,7,12,0.0,0.0,0.45367945213699995,0.891164942482,0.0,0.0,0.0012217304764,0.0,0.0,0.0
916,7_13,7,13,0.0,0.0,0.45282378631000003,0.891600032835,0.0,0.0,-0.0452040276267,0.0,0.0,0.0
917,7_14,7,14,0.0,0.0,0.45235688357299997,0.891837008586,0.0,0.0,-0.022340214425499997,0.0,0.0,0.0
918,7_15,7,15,0.0,0.0,0.452123385691,0.891955404777,0.0,0.0,-0.0357792496659,0.0,0.0,0.0
919,7_16,7,16,0.0,0.0,0.45157843681800003,0.8922314248000001,0.0,0.0,-0.00645771823238,0.0,0.0,0.0
920,7_17,7,17,0.0,0.0,0.451266961791,0.8923890010500001,0.0,0.0,-0.03525565089030001,0.0,0.0,0.0
921,7_18,7,18,0.0,0.0,0.450955431779,0.892546468565,0.0,0.0,0.010471975512,0.0,0.0,0.0
922,7_19,7,19,0.0,0.0,0.450955431779,0.892546468565,0.0,0.0,-0.00523598775598,0.0,0.0,0.0
923,7_20,7,20,0.0,0.0,0.450332206951,0.892861077314,0.0,0.0,-0.0115191730632,0.0,0.0,0.0
924,7_21,7,21,0.0,0.0,0.45017636643700004,0.892939661512,0.0,0.0,-0.0195476876223,0.0,0.0,0.0
925,7_22,7,22,0.0,0.0,0.448929149052,0.893567355677,0.0,0.0,-0.008901179185170001,0.0,0.0,0.0
926,7_23,7,23,0.0,0.0,0.44861720785899994,0.89372400707,0.0,0.0,-0.0254818070791,0.0,0.0,0.0
927,7_24,7,24,0.0,0.0,0.448071179262,0.893997884961,0.0,0.0,-0.0191986217719,0.0,0.0,0.0
928,7_25,7,25,0.0,0.0,0.447837115811,0.894115159083,0.0,0.0,-0.020943951023900002,0.0,0.0,0.0
929,7_26,7,26,0.0,0.0,0.44729084841899996,0.89438856037,0.0,0.0,-0.00977384381117,0.0,0.0,0.0
930,7_27,7,27,0.0,0.0,0.447056682715,0.8945056301890001,0.0,0.0,-0.012217304764,0.0,0.0,0.0
931,7_28,7,28,0.0,0.0,0.446666338461,0.894700610308,0.0,0.0,-0.0242600766027,0.0,0.0,0.0
932,7_29,7,29,0.0,0.0,0.44604161080300003,0.895012224181,0.0,0.0,-0.0158824961931,0.0,0.0,0.0
933,7_30,7,30,0.0,0.0,0.44565104560099994,0.8952067613429999,0.0,0.0,-0.0178023583703,0.0,0.0,0.0
934,7_31,7,31,0.0,0.0,0.44565104560099994,0.8952067613429999,0.0,0.0,-0.007853981633970001,0.0,0.0,0.0
935,7_32,7,32,0.0,0.0,0.444947814477,0.8955564987160001,0.0,0.0,-0.014660765716799999,0.0,0.0,0.0
936,7_33,7,33,0.0,0.0,0.444791503606,0.895634143119,0.0,0.0,-0.013788101090799998,0.0,0.0,0.0
937,7_34,7,34,0.0,0.0,0.44455701189499996,0.895750558568,0.0,0.0,-0.0193731546971,0.0,0.0,0.0
938,7_35,7,35,0.0,0.0,0.444244308887,0.895905683664,0.0,0.0,-0.0523598775598,0.0,0.0,0.0
939,7_36,7,36,0.0,0.0,0.44307119082400004,0.8964864303829999,0.0,0.0,-0.0300196631343,0.0,0.0,0.0
940,7_37,7,37,0.0,0.0,0.44291471767800006,0.8965637472399999,0.0,0.0,-0.00314159265359,0.0,0.0,0.0
941,7_38,7,38,0.0,0.0,0.44291471767800006,0.8965637472399999,0.0,0.0,-0.0019198621771900001,0.0,0.0,0.0
942,7_39,7,39,0.0,0.0,0.44260173091300004,0.8967182990170001,0.0,0.0,-0.0392699081699,0.0,0.0,0.0
943,7_40,7,40,0.0,0.0,0.44205387433,0.8969885017039999,0.0,0.0,-0.03473205211469999,0.0,0.0,0.0
944,7_41,7,41,0.0,0.0,0.441975595633,0.8970270747669999,0.0,0.0,-0.006632251157579999,0.0,0.0,0.0
945,7_42,7,42,0.0,0.0,0.44174073935099994,0.897142752965,0.0,0.0,-0.0253072741539,0.0,0.0,0.0
946,7_43,7,43,0.0,0.0,0.441584151674,0.8972198376039999,0.0,0.0,-0.0134390352404,0.0,0.0,0.0
947,7_44,7,44,0.0,0.0,0.44119262364399997,0.897412429623,0.0,0.0,-0.0556760031386,0.0,0.0,0.0
948,7_45,7,45,0.0,0.0,0.440095898534,0.897950778213,0.0,0.0,-0.00366519142919,0.0,0.0,0.0
949,7_46,7,46,0.0,0.0,0.43978242777599996,0.898104345953,0.0,0.0,-0.0226892802759,0.0,0.0,0.0
950,7_47,7,47,0.0,0.0,0.43970405171300003,0.89814272079,0.0,0.0,0.00157079632679,0.0,0.0,0.0
951,7_48,7,48,0.0,0.0,0.439233725031,0.898372826167,0.0,0.0,-0.0546288055874,0.0,0.0,0.0
952,7_49,7,49,0.0,0.0,0.438920107004,0.8985260929250001,0.0,0.0,-0.029670597283900004,0.0,0.0,0.0
953,7_50,7,50,0.0,0.0,0.43884169413900004,0.898564392509,0.0,0.0,-0.013962634016,0.0,0.0,0.0
954,7_51,7,51,0.0,0.0,0.438292710543,0.8988322979760001,0.0,0.0,0.00994837673637,0.0,0.0,0.0
955,7_52,7,52,0.0,0.0,0.437115766651,0.8994052515659999,0.0,0.0,-0.0663225115758,0.0,0.0,0.0
956,7_53,7,53,0.0,0.0,0.436958784165,0.899481528961,0.0,0.0,-0.0101229096616,0.0,0.0,0.0
957,7_54,7,54,0.0,0.0,0.436644779265,0.899634001548,0.0,0.0,0.00244346095279,0.0,0.0,0.0
958,7_55,7,55,0.0,0.0,0.43499538155699996,0.900432683783,0.0,0.0,-0.10908307824999999,0.0,0.0,0.0
959,7_56,7,56,0.0,0.0,0.434130827946,0.900849834449,0.0,0.0,-0.00715584993318,0.0,0.0,0.0
960,7_57,7,57,0.0,0.0,0.433973593378,0.900925590851,0.0,0.0,0.000698131700798,0.0,0.0,0.0
961,7_58,7,58,0.0,0.0,0.433501810375,0.901152695386,0.0,0.0,-0.03473205211469999,0.0,0.0,0.0
962,7_59,7,59,0.0,0.0,0.433029908525,0.901379552865,0.0,0.0,-0.036826447217099996,0.0,0.0,0.0
963,7_60,7,60,0.0,0.0,0.43247920633000003,0.901643907589,0.0,0.0,-0.020071286397900002,0.0,0.0,0.0
964,7_61,7,61,0.0,0.0,0.432164446891,0.901794816376,0.0,0.0,-0.0013962634016,0.0,0.0,0.0
965,7_62,7,62,0.0,0.0,0.432085748802,0.9018325264049999,0.0,0.0,-0.013962634016,0.0,0.0,0.0
966,7_63,7,63,0.0,0.0,0.43153477007700003,0.9020963042899999,0.0,0.0,-0.008901179185170001,0.0,0.0,0.0
967,7_64,7,64,0.0,0.0,0.430904882939,0.9023973525329999,0.0,0.0,-0.0226892802759,0.0,0.0,0.0
968,7_65,7,65,0.0,0.0,0.43082613227399996,0.902434952642,0.0,0.0,-0.00558505360638,0.0,0.0,0.0
969,7_66,7,66,0.0,0.0,0.430117228714,0.9027730443269999,0.0,0.0,-0.0254818070791,0.0,0.0,0.0
970,7_67,7,67,0.0,0.0,0.429880868547,0.902885617815,0.0,0.0,-0.0157079632679,0.0,0.0,0.0
971,7_68,7,68,0.0,0.0,0.42980207527599995,0.90292312856,0.0,0.0,-0.013962634016,0.0,0.0,0.0
972,7_69,7,69,0.0,0.0,0.429408059837,0.903110579136,0.0,0.0,-0.0261799387799,0.0,0.0,0.0
973,7_70,7,70,0.0,0.0,0.42925043076700004,0.903185511225,0.0,0.0,-0.014835298642,0.0,0.0,0.0
974,7_71,7,71,0.0,0.0,0.428856300894,0.903372721075,0.0,0.0,-0.030717794835099996,0.0,0.0,0.0
975,7_72,7,72,0.0,0.0,0.428304381921,0.903634525916,0.0,0.0,-0.015533430342700001,0.0,0.0,0.0
976,7_73,7,73,0.0,0.0,0.42806779627999997,0.903746624772,0.0,0.0,-0.0287979326579,0.0,0.0,0.0
977,7_74,7,74,0.0,0.0,0.42767342168899997,0.903933318548,0.0,0.0,-0.010646508437200001,0.0,0.0,0.0
978,7_75,7,75,0.0,0.0,0.426963342288,0.9042689336380001,0.0,0.0,-0.030717794835099996,0.0,0.0,0.0
979,7_76,7,76,0.0,0.0,0.426647666878,0.904417916866,0.0,0.0,-0.00837758040957,0.0,0.0,0.0
980,7_77,7,77,0.0,0.0,0.42601616014,0.904715552701,0.0,0.0,-0.0101229096616,0.0,0.0,0.0
981,7_78,7,78,0.0,0.0,0.425463421407,0.904975622348,0.0,0.0,-0.022165681500300002,0.0,0.0,0.0
982,7_79,7,79,0.0,0.0,0.425542393808,0.9049384902150001,0.0,0.0,-0.007679448708779999,0.0,0.0,0.0
983,7_80,7,80,0.0,0.0,0.42467351928999997,0.90534656459,0.0,0.0,-0.017453292519900004,0.0,0.0,0.0
984,7_81,7,81,0.0,0.0,0.424436485563,0.9054577128299999,0.0,0.0,-0.025830872929500003,0.0,0.0,0.0
985,7_82,7,82,0.0,0.0,0.424594511281,0.905383620898,0.0,0.0,0.010471975512,0.0,0.0,0.0
986,7_83,7,83,0.0,0.0,0.42372520990400003,0.905790785166,0.0,0.0,-0.027925268031900003,0.0,0.0,0.0
987,7_84,7,84,0.0,0.0,0.42348805991300004,0.905901685124,0.0,0.0,-0.0312413936107,0.0,0.0,0.0
988,7_85,7,85,0.0,0.0,0.42356711313600004,0.90586472537,0.0,0.0,0.0287979326579,0.0,0.0,0.0
989,7_86,7,86,0.0,0.0,0.42285551807899996,0.9061971147769999,0.0,0.0,-0.0225147473507,0.0,0.0,0.0
990,7_87,7,87,0.0,0.0,0.42285551807899996,0.9061971147769999,0.0,0.0,0.0102974425868,0.0,0.0,0.0
991,7_88,7,88,0.0,0.0,0.42230187490099996,0.906455253421,0.0,0.0,-0.0521853446346,0.0,0.0,0.0
992,7_89,7,89,0.0,0.0,0.42206455100199997,0.906565780728,0.0,0.0,-0.011868238913600001,0.0,0.0,0.0
993,7_90,7,90,0.0,0.0,0.421827198174,0.906676245901,0.0,0.0,-0.0345575191895,0.0,0.0,0.0
994,7_91,7,91,0.0,0.0,0.421827198174,0.906676245901,0.0,0.0,0.00488692190558,0.0,0.0,0.0
995,7_92,7,92,0.0,0.0,0.421589816435,0.9067866489299999,0.0,0.0,-0.039793506945500004,0.0,0.0,0.0
996,7_93,7,93,0.0,0.0,0.42095665724200004,0.907080753144,0.0,0.0,0.00610865238198,0.0,0.0,0.0
997,7_94,7,94,0.0,0.0,0.420560828539,0.9072643437819999,0.0,0.0,-0.006632251157579999,0.0,0.0,0.0
998,7_95,7,95,0.0,0.0,0.420640000688,0.907227639472,0.0,0.0,0.0178023583703,0.0,0.0,0.0
999,7_96,7,96,0.0,0.0,0.420244107924,0.907411091929,0.0,0.0,-0.0415388361975,0.0,0.0,0.0
1000,7_97,7,97,0.0,0.0,0.419927336103,0.90755772951,0.0,0.0,-0.00994837673637,0.0,0.0,0.0
1001,7_98,7,98,0.0,0.0,0.419848135152,0.907594371627,0.0,0.0,0.0109955742876,0.0,0.0,0.0
1002,7_99,7,99,0.0,0.0,0.418976713794,0.9079969786830001,0.0,0.0,-0.0546288055874,0.0,0.0,0.0
1003,7_100,7,100,0.0,0.0,0.418421971866,0.9082527475650001,0.0,0.0,0.00261799387799,0.0,0.0,0.0
1004,7_101,7,101,0.0,0.0,0.418738986386,0.908106635413,0.0,0.0,0.0179768912955,0.0,0.0,0.0
1005,7_102,7,102,0.0,0.0,0.418263445485,0.908325762142,0.0,0.0,-0.050789081233,0.0,0.0,0.0
1006,7_103,7,103,0.0,0.0,0.41754991916999995,0.9086539853,0.0,0.0,-0.0005235987755980001,0.0,0.0,0.0
1007,7_104,7,104,0.0,0.0,0.417708502848,0.9085810952519999,0.0,0.0,0.0178023583703,0.0,0.0,0.0
1008,7_105,7,105,0.0,0.0,0.41754991916999995,0.9086539853,0.0,0.0,-0.0359537825911,0.0,0.0,0.0
1009,7_106,7,106,0.0,0.0,0.41715340434,0.908836089319,0.0,0.0,-0.000872664625997,0.0,0.0,0.0
1010,7_107,7,107,0.0,0.0,0.416994776166,0.90890888248,0.0,0.0,0.009250245035569999,0.0,0.0,0.0
1011,7_108,7,108,0.0,0.0,0.416598150168,0.9090907442470001,0.0,0.0,-0.0328121899375,0.0,0.0,0.0
1012,7_109,7,109,0.0,0.0,0.41667748171499996,0.909054385739,0.0,0.0,0.0193731546971,0.0,0.0,0.0
1013,7_110,7,110,0.0,0.0,0.416439477557,0.9091634404950001,0.0,0.0,0.004014257279590001,0.0,0.0,0.0
1014,7_111,7,111,0.0,0.0,0.41636013649400005,0.909199778233,0.0,0.0,-0.044680428851100004,0.0,0.0,0.0
1015,7_112,7,112,0.0,0.0,0.415725293894,0.909490230853,0.0,0.0,-0.004014257279590001,0.0,0.0,0.0
1016,7_113,7,113,0.0,0.0,0.415566551572,0.909562774752,0.0,0.0,-0.022165681500300002,0.0,0.0,0.0
1017,7_114,7,114,0.0,0.0,0.415169640396,0.909744013277,0.0,0.0,0.00733038285838,0.0,0.0,0.0
1018,7_115,7,115,0.0,0.0,0.414772650178,0.909925078599,0.0,0.0,-0.026529004630299998,0.0,0.0,0.0
1019,7_116,7,116,0.0,0.0,0.41469324265600005,0.909961270877,0.0,0.0,-0.00750491578358,0.0,0.0,0.0
1020,7_117,7,117,0.0,0.0,0.41445500114399997,0.910069806128,0.0,0.0,-0.021118483949099997,0.0,0.0,0.0
1021,7_118,7,118,0.0,0.0,0.414296157687,0.910142128311,0.0,0.0,-0.00366519142919,0.0,0.0,0.0
1022,7_119,7,119,0.0,0.0,0.41413730161,0.910214422768,0.0,0.0,-0.0188495559215,0.0,0.0,0.0
1023,7_120,7,120,0.0,0.0,0.413581206025,0.910467235008,0.0,0.0,-0.0013962634016,0.0,0.0,0.0
1024,7_121,7,121,0.0,0.0,0.41334283209,0.910575479112,0.0,0.0,-0.00837758040957,0.0,0.0,0.0
1025,7_122,7,122,0.0,0.0,0.413183900393,0.910647607176,0.0,0.0,-0.03403392041390001,0.0,0.0,0.0
1026,7_123,7,123,0.0,0.0,0.41215053779,0.911115763336,0.0,0.0,-0.0190240888467,0.0,0.0,0.0
1027,7_124,7,124,0.0,0.0,0.411911994119,0.91122363287,0.0,0.0,-0.009250245035569999,0.0,0.0,0.0
1028,7_125,7,125,0.0,0.0,0.412071026371,0.911151726786,0.0,0.0,-0.014137166941200001,0.0,0.0,0.0
1029,7_126,7,126,0.0,0.0,0.41119619378100003,0.9115468667159999,0.0,0.0,-0.00471238898038,0.0,0.0,0.0
1030,7_127,7,127,0.0,0.0,0.41071885261299995,0.9117620435770001,0.0,0.0,-0.024783675378299997,0.0,0.0,0.0
1031,7_128,7,128,0.0,0.0,0.41048013979599995,0.911869538274,0.0,0.0,-0.0202458193231,0.0,0.0,0.0
1032,8_0,8,0,0.0,0.0,0.409206530021,0.912441787616,0.0,0.0,-0.0186750229963,0.0,0.0,0.0
1033,8_1,8,1,0.0,0.0,0.409047272655,0.9125131937309999,0.0,0.0,-0.0256563400043,0.0,0.0,0.0
1034,8_2,8,2,0.0,0.0,0.408808363244,0.912620250784,0.0,0.0,-0.0197222205475,0.0,0.0,0.0
1035,8_3,8,3,0.0,0.0,0.408649074736,0.912691587404,0.0,0.0,-0.0431096325243,0.0,0.0,0.0
1036,8_4,8,4,0.0,0.0,0.407852445573,0.913047853423,0.0,0.0,0.008901179185170001,0.0,0.0,0.0
1037,8_5,8,5,0.0,0.0,0.407852445573,0.913047853423,0.0,0.0,-0.00366519142919,0.0,0.0,0.0
1038,8_6,8,6,0.0,0.0,0.407613396229,0.9131545976530001,0.0,0.0,0.011344640138,0.0,0.0,0.0
1039,8_7,8,7,0.0,0.0,0.407613396229,0.9131545976530001,0.0,0.0,-0.000349065850399,0.0,0.0,0.0
1040,8_8,8,8,0.0,0.0,0.40641773078000004,0.9136873798559999,0.0,0.0,-0.0305432619099,0.0,0.0,0.0
1041,8_9,8,9,0.0,0.0,0.406497463498,0.913651909739,0.0,0.0,0.0125663706144,0.0,0.0,0.0
1042,8_10,8,10,0.0,0.0,0.406736643076,0.913545457643,0.0,0.0,-0.00942477796077,0.0,0.0,0.0
1043,8_11,8,11,0.0,0.0,0.406736643076,0.913545457643,0.0,0.0,0.00366519142919,0.0,0.0,0.0
1044,8_12,8,12,0.0,0.0,0.405779757666,0.913970890274,0.0,0.0,-0.057944931166199996,0.0,0.0,0.0
1045,8_13,8,13,0.0,0.0,0.405540466744,0.9140770918440001,0.0,0.0,0.0207694180987,0.0,0.0,0.0
1046,8_14,8,14,0.0,0.0,0.405699997115,0.914006297758,0.0,0.0,0.013788101090799998,0.0,0.0,0.0
1047,8_15,8,15,0.0,0.0,0.405061801529,0.914289307026,0.0,0.0,-0.055850536063800006,0.0,0.0,0.0
1048,8_16,8,16,0.0,0.0,0.404583025264,0.914501271551,0.0,0.0,0.0240855436775,0.0,0.0,0.0
1049,8_17,8,17,0.0,0.0,0.404662829014,0.914465961539,0.0,0.0,0.00488692190558,0.0,0.0,0.0
1050,8_18,8,18,0.0,0.0,0.40410413808,0.91471298536,0.0,0.0,-0.051661745859000005,0.0,0.0,0.0
1051,8_19,8,19,0.0,0.0,0.403704980793,0.914889221974,0.0,0.0,0.0116937059884,0.0,0.0,0.0
1052,8_20,8,20,0.0,0.0,0.40346544952200003,0.9149948803360001,0.0,0.0,-0.00750491578358,0.0,0.0,0.0
1053,8_21,8,21,0.0,0.0,0.403225890599,0.915100475986,0.0,0.0,-0.0401425727959,0.0,0.0,0.0
1054,8_22,8,22,0.0,0.0,0.40282656431999997,0.9152763293549999,0.0,0.0,0.0109955742876,0.0,0.0,0.0
1055,8_23,8,23,0.0,0.0,0.40282656431999997,0.9152763293549999,0.0,0.0,0.0020943951023900003,0.0,0.0,0.0
1056,8_24,8,24,0.0,0.0,0.40242716134900003,0.915452008468,0.0,0.0,0.0020943951023900003,0.0,0.0,0.0
1057,8_25,8,25,0.0,0.0,0.402027681761,0.915627513292,0.0,0.0,-0.049043751981,0.0,0.0,0.0
1058,8_26,8,26,0.0,0.0,0.401947776656,0.9156625933399999,0.0,0.0,0.00750491578358,0.0,0.0,0.0
1059,8_27,8,27,0.0,0.0,0.40170804297799995,0.9157677916410001,0.0,0.0,-0.0277507351067,0.0,0.0,0.0
1060,8_28,8,28,0.0,0.0,0.401787957264,0.9157327325139999,0.0,0.0,0.0038397243543899996,0.0,0.0,0.0
1061,8_29,8,29,0.0,0.0,0.400908731963,0.916117999297,0.0,0.0,-0.0034906585039899997,0.0,0.0,0.0
1062,8_30,8,30,0.0,0.0,0.40106861861000004,0.9160480135700001,0.0,0.0,0.0160570291183,0.0,0.0,0.0
1063,8_31,8,31,0.0,0.0,0.400588922036,0.9162578870290001,0.0,0.0,-0.027052603405900003,0.0,0.0,0.0
1064,8_32,8,32,0.0,0.0,0.400508961926,0.9162928415180001,0.0,0.0,-0.027052603405900003,0.0,0.0,0.0
1065,8_33,8,33,0.0,0.0,0.400189090992,0.916432589693,0.0,0.0,-0.03473205211469999,0.0,0.0,0.0
1066,8_34,8,34,0.0,0.0,0.400109115638,0.916467509289,0.0,0.0,0.0050614548307799994,0.0,0.0,0.0
1067,8_35,8,35,0.0,0.0,0.39994915579,0.9165373275450001,0.0,0.0,-0.0214675497995,0.0,0.0,0.0
1068,8_36,8,36,0.0,0.0,0.399789183758,0.916607117881,0.0,0.0,-0.0013962634016,0.0,0.0,0.0
1069,8_37,8,37,0.0,0.0,0.399629199548,0.9166768802959999,0.0,0.0,-0.0319395253115,0.0,0.0,0.0
1070,8_38,8,38,0.0,0.0,0.398909120029,0.9169904655760001,0.0,0.0,0.0157079632679,0.0,0.0,0.0
1071,8_39,8,39,0.0,0.0,0.39906915898,0.9169208288349999,0.0,0.0,0.0185004900711,0.0,0.0,0.0
1072,8_40,8,40,0.0,0.0,0.39866903881800003,0.9170948683140001,0.0,0.0,-0.0249582083035,0.0,0.0,0.0
1073,8_41,8,41,0.0,0.0,0.398268842755,0.9172687331910001,0.0,0.0,-0.0483456202802,0.0,0.0,0.0
1074,8_42,8,42,0.0,0.0,0.39786857086800004,0.9174424234340001,0.0,0.0,0.0300196631343,0.0,0.0,0.0
1075,8_43,8,43,0.0,0.0,0.39762837137100004,0.9175465537399999,0.0,0.0,-0.0160570291183,0.0,0.0,0.0
1076,8_44,8,44,0.0,0.0,0.397388144621,0.91765062116,0.0,0.0,-0.056025068989000004,0.0,0.0,0.0
1077,8_45,8,45,0.0,0.0,0.396507080307,0.918031663543,0.0,0.0,0.012042771838799999,0.0,0.0,0.0
1078,8_46,8,46,0.0,0.0,0.39570579567100006,0.9183773316410001,0.0,0.0,-0.036826447217099996,0.0,0.0,0.0
1079,8_47,8,47,0.0,0.0,0.395385197406,0.918515403068,0.0,0.0,-0.0333357887131,0.0,0.0,0.0
1080,8_48,8,48,0.0,0.0,0.39498438183,0.918687834964,0.0,0.0,0.0164060949687,0.0,0.0,0.0
1081,8_49,8,49,0.0,0.0,0.394663675223,0.91882565455,0.0,0.0,-0.0239110107523,0.0,0.0,0.0
1082,8_50,8,50,0.0,0.0,0.39458349105499996,0.918860091955,0.0,0.0,-0.0387463093943,0.0,0.0,0.0
1083,8_51,8,51,0.0,0.0,0.393941909591,0.919135339255,0.0,0.0,0.007853981633970001,0.0,0.0,0.0
1084,8_52,8,52,0.0,0.0,0.393701267024,0.9192384415070001,0.0,0.0,-0.0136135681656,0.0,0.0,0.0
1085,8_53,8,53,0.0,0.0,0.393621046838,0.9192727949230001,0.0,0.0,-0.0324631240871,0.0,0.0,0.0
1086,8_54,8,54,0.0,0.0,0.39241738467799997,0.919787255947,0.0,0.0,-0.00453785605519,0.0,0.0,0.0
1087,8_55,8,55,0.0,0.0,0.39241738467799997,0.919787255947,0.0,0.0,0.0034906585039899997,0.0,0.0,0.0
1088,8_56,8,56,0.0,0.0,0.392577911861,0.919718752184,0.0,0.0,0.00942477796077,0.0,0.0,0.0
1089,8_57,8,57,0.0,0.0,0.39241738467799997,0.919787255947,0.0,0.0,-0.035081117965099995,0.0,0.0,0.0
1090,8_58,8,58,0.0,0.0,0.392096294456,0.9199241794159999,0.0,0.0,-0.0406661715715,0.0,0.0,0.0
1091,8_59,8,59,0.0,0.0,0.391534271632,0.9201635257590001,0.0,0.0,0.00157079632679,0.0,0.0,0.0
1092,8_60,8,60,0.0,0.0,0.391453970725,0.920197690066,0.0,0.0,0.00628318530718,0.0,0.0,0.0
1093,8_61,8,61,0.0,0.0,0.391534271632,0.9201635257590001,0.0,0.0,0.010821041362399999,0.0,0.0,0.0
1094,8_62,8,62,0.0,0.0,0.390731128489,0.9205048534520001,0.0,0.0,-0.0225147473507,0.0,0.0,0.0
1095,8_63,8,63,0.0,0.0,0.390891780942,0.920436643986,0.0,0.0,-0.012391837689200002,0.0,0.0,0.0
1096,8_64,8,64,0.0,0.0,0.39065079779899997,0.9205389476710001,0.0,0.0,-0.0310668606855,0.0,0.0,0.0
1097,8_65,8,65,0.0,0.0,0.39065079779899997,0.9205389476710001,0.0,0.0,-0.0116937059884,0.0,0.0,0.0
1098,8_66,8,66,0.0,0.0,0.390329445295,0.920675254439,0.0,0.0,-0.047298422729,0.0,0.0,0.0
1099,8_67,8,67,0.0,0.0,0.389927687788,0.920845480141,0.0,0.0,0.0207694180987,0.0,0.0,0.0
1100,8_68,8,68,0.0,0.0,0.389606228328,0.9209815344769999,0.0,0.0,-0.0190240888467,0.0,0.0,0.0
1101,8_69,8,69,0.0,0.0,0.38952585604400003,0.921015530528,0.0,0.0,-0.035604716740699996,0.0,0.0,0.0
1102,8_70,8,70,0.0,0.0,0.389284721396,0.921117476594,0.0,0.0,0.0237364778271,0.0,0.0,0.0
1103,8_71,8,71,0.0,0.0,0.38896316703100003,0.9212533064759999,0.0,0.0,-0.0101229096616,0.0,0.0,0.0
1104,8_72,8,72,0.0,0.0,0.38912395014,0.921185405566,0.0,0.0,-0.0303687289847,0.0,0.0,0.0
1105,8_73,8,73,0.0,0.0,0.388561157431,0.9214229359720001,0.0,0.0,0.0127409035396,0.0,0.0,0.0
1106,8_74,8,74,0.0,0.0,0.388239496484,0.921558513264,0.0,0.0,0.000174532925199,0.0,0.0,0.0
1107,8_75,8,75,0.0,0.0,0.388239496484,0.921558513264,0.0,0.0,-0.0457276264023,0.0,0.0,0.0
1108,8_76,8,76,0.0,0.0,0.387837353782,0.9217278269700001,0.0,0.0,0.020071286397900002,0.0,0.0,0.0
1109,8_77,8,77,0.0,0.0,0.387676476022,0.921795503319,0.0,0.0,0.0012217304764,0.0,0.0,0.0
1110,8_78,8,78,0.0,0.0,0.387676476022,0.921795503319,0.0,0.0,-0.041713369122699996,0.0,0.0,0.0
1111,8_79,8,79,0.0,0.0,0.38687191017899997,0.9221334638299998,0.0,0.0,-0.000174532925199,0.0,0.0,0.0
1112,8_80,8,80,0.0,0.0,0.386710961637,0.9222009716700001,0.0,0.0,-0.014311699866400001,0.0,0.0,0.0
1113,8_81,8,81,0.0,0.0,0.386952380031,0.922099699375,0.0,0.0,-0.0207694180987,0.0,0.0,0.0
1114,8_82,8,82,0.0,0.0,0.38655000131399997,0.92226845142,0.0,0.0,-0.0567232006898,0.0,0.0,0.0
1115,8_83,8,83,0.0,0.0,0.386389029217,0.922335903075,0.0,0.0,0.032637657012299995,0.0,0.0,0.0
1116,8_84,8,84,0.0,0.0,0.38598654749,0.922504409288,0.0,0.0,-0.004014257279590001,0.0,0.0,0.0
1117,8_85,8,85,0.0,0.0,0.386147549004,0.922437027877,0.0,0.0,0.0300196631343,0.0,0.0,0.0
1118,8_86,8,86,0.0,0.0,0.385342423908,0.922773653903,0.0,0.0,-0.0654498469498,0.0,0.0,0.0
1119,8_87,8,87,0.0,0.0,0.385020291668,0.922908107562,0.0,0.0,0.00279252680319,0.0,0.0,0.0
1120,8_88,8,88,0.0,0.0,0.38526189524800003,0.922807277859,0.0,0.0,-0.030717794835099996,0.0,0.0,0.0
1121,8_89,8,89,0.0,0.0,0.385020291668,0.922908107562,0.0,0.0,-0.0219911485751,0.0,0.0,0.0
1122,8_90,8,90,0.0,0.0,0.38518136365500005,0.922840894788,0.0,0.0,-0.046251225177800004,0.0,0.0,0.0
1123,8_91,8,91,0.0,0.0,0.3846175604,0.923076016497,0.0,0.0,-0.058643062867,0.0,0.0,0.0
1124,8_92,8,92,0.0,0.0,0.384698112514,0.923042448768,0.0,0.0,-0.0167551608191,0.0,0.0,0.0
1125,8_93,8,93,0.0,0.0,0.384456447386,0.923143130865,0.0,0.0,0.022165681500300002,0.0,0.0,0.0
1126,8_94,8,94,0.0,0.0,0.383408927549,0.9235786887299999,0.0,0.0,-0.0459021593275,0.0,0.0,0.0
1127,8_95,8,95,0.0,0.0,0.38357011659900003,0.923511757181,0.0,0.0,0.00837758040957,0.0,0.0,0.0
1128,8_96,8,96,0.0,0.0,0.383650706743,0.9234782808580001,0.0,0.0,0.024609142453099996,0.0,0.0,0.0
1129,8_97,8,97,0.0,0.0,0.382602807209,0.9239129244230001,0.0,0.0,-0.0645771823238,0.0,0.0,0.0
1130,8_98,8,98,0.0,0.0,0.38252217914000003,0.923946309298,0.0,0.0,-0.00733038285838,0.0,0.0,0.0
1131,8_99,8,99,0.0,0.0,0.382844673933,0.9238127275810001,0.0,0.0,0.0509636141582,0.0,0.0,0.0
1132,8_100,8,100,0.0,0.0,0.38219963773800003,0.924079778435,0.0,0.0,-0.062133721371,0.0,0.0,0.0
1133,8_101,8,101,0.0,0.0,0.381877049766,0.924213134976,0.0,0.0,-0.010646508437200001,0.0,0.0,0.0
1134,8_102,8,102,0.0,0.0,0.38203834956999994,0.924146470781,0.0,0.0,0.0370009801423,0.0,0.0,0.0
1135,8_103,8,103,0.0,0.0,0.381635078249,0.9243130784799999,0.0,0.0,-0.0383972435439,0.0,0.0,0.0
1136,8_104,8,104,0.0,0.0,0.38131240887400003,0.9244462379389999,0.0,0.0,-0.0150098315672,0.0,0.0,0.0
1137,8_105,8,105,0.0,0.0,0.38115105676100003,0.9245127754279999,0.0,0.0,0.00279252680319,0.0,0.0,0.0
1138,8_106,8,106,0.0,0.0,0.380586232965,0.924745434851,0.0,0.0,0.00855211333477,0.0,0.0,0.0
1139,8_107,8,107,0.0,0.0,0.380263412733,0.9248782281669999,0.0,0.0,-0.00558505360638,0.0,0.0,0.0
1140,8_108,8,108,0.0,0.0,0.380424828643,0.9248118455940001,0.0,0.0,-0.0157079632679,0.0,0.0,0.0
1141,8_109,8,109,0.0,0.0,0.37985982229099996,0.925044061334,0.0,0.0,0.00820304748437,0.0,0.0,0.0
1142,8_110,8,110,0.0,0.0,0.37953689786300004,0.925176601066,0.0,0.0,-0.023561944901900004,0.0,0.0,0.0
1143,8_111,8,111,0.0,0.0,0.379375418305,0.92524282866,0.0,0.0,-0.00837758040957,0.0,0.0,0.0
1144,8_112,8,112,0.0,0.0,0.379294674192,0.9252759318870001,0.0,0.0,-0.0418879020479,0.0,0.0,0.0
1145,8_113,8,113,0.0,0.0,0.378890910311,0.925441342325,0.0,0.0,-0.041713369122699996,0.0,0.0,0.0
1146,8_114,8,114,0.0,0.0,0.37897166886,0.925408274331,0.0,0.0,-0.0033161255787899995,0.0,0.0,0.0
1147,8_115,8,115,0.0,0.0,0.378890910311,0.925441342325,0.0,0.0,0.0226892802759,0.0,0.0,0.0
1148,8_116,8,116,0.0,0.0,0.378890910311,0.925441342325,0.0,0.0,-0.0013962634016,0.0,0.0,0.0
1149,8_117,8,117,0.0,0.0,0.378002375964,0.9258046250509999,0.0,0.0,-0.00593411945678,0.0,0.0,0.0
1150,8_118,8,118,0.0,0.0,0.37792158283,0.9258376084559999,0.0,0.0,-0.010471975512,0.0,0.0,0.0
1151,8_119,8,119,0.0,0.0,0.378244738092,0.925705632534,0.0,0.0,0.010646508437200001,0.0,0.0,0.0
1152,8_120,8,120,0.0,0.0,0.378002375964,0.9258046250509999,0.0,0.0,-0.0436332312999,0.0,0.0,0.0
1153,8_121,8,121,0.0,0.0,0.37703266854199996,0.926199960512,0.0,0.0,-0.0329867228627,0.0,0.0,0.0
1154,8_122,8,122,0.0,0.0,0.37719431518700003,0.9261341417910001,0.0,0.0,-0.00837758040957,0.0,0.0,0.0
1155,8_123,8,123,0.0,0.0,0.37759838152099995,0.925969471566,0.0,0.0,0.020071286397900002,0.0,0.0,0.0
1156,8_124,8,124,0.0,0.0,0.376385967161,0.926462953239,0.0,0.0,-0.0191986217719,0.0,0.0,0.0
1157,8_125,8,125,0.0,0.0,0.376628501693,0.926364383875,0.0,0.0,0.012042771838799999,0.0,0.0,0.0
1158,8_126,8,126,0.0,0.0,0.376790177042,0.926298635692,0.0,0.0,0.011868238913600001,0.0,0.0,0.0
1159,8_127,8,127,0.0,0.0,0.375658208847,0.926758280312,0.0,0.0,-0.0478220215046,0.0,0.0,0.0
1160,8_128,8,128,0.0,0.0,0.375819952958,0.926692701471,0.0,0.0,0.008028514559169999,0.0,0.0,0.0
1161,9_0,9,0,0.0,0.0,0.376143406831,0.926561459104,0.0,0.0,0.022340214425499997,0.0,0.0,0.0
1162,9_1,9,1,0.0,0.0,0.375334686299,0.9268893533,0.0,0.0,-0.0333357887131,0.0,0.0,0.0
1163,9_2,9,2,0.0,0.0,0.37525379851499996,0.926922103901,0.0,0.0,-0.0050614548307799994,0.0,0.0,0.0
1164,9_3,9,3,0.0,0.0,0.37525379851499996,0.926922103901,0.0,0.0,-0.00820304748437,0.0,0.0,0.0
1165,9_4,9,4,0.0,0.0,0.37525379851499996,0.926922103901,0.0,0.0,0.0034906585039899997,0.0,0.0,0.0
1166,9_5,9,5,0.0,0.0,0.37493021880800004,0.927053035713,0.0,0.0,-0.0343829862643,0.0,0.0,0.0
1167,9_6,9,6,0.0,0.0,0.374444763601,0.927249221629,0.0,0.0,0.0202458193231,0.0,0.0,0.0
1168,9_7,9,7,0.0,0.0,0.37493021880800004,0.927053035713,0.0,0.0,0.0,0.0,0.0,0.0
1169,9_8,9,8,0.0,0.0,0.374363844416,0.927281894568,0.0,0.0,-0.0394444410951,0.0,0.0,0.0
1170,9_9,9,9,0.0,0.0,0.37404013917199996,0.927412515706,0.0,0.0,-0.0415388361975,0.0,0.0,0.0
1171,9_10,9,10,0.0,0.0,0.37387826945600006,0.9274777839,0.0,0.0,0.0366519142919,0.0,0.0,0.0
1172,9_11,9,11,0.0,0.0,0.37420199749300004,0.927347219262,0.0,0.0,0.0322885911619,0.0,0.0,0.0
1173,9_12,9,12,0.0,0.0,0.374363844416,0.927281894568,0.0,0.0,-0.00523598775598,0.0,0.0,0.0
1174,9_13,9,13,0.0,0.0,0.374121069757,0.9273798710150001,0.0,0.0,-0.03473205211469999,0.0,0.0,0.0
1175,9_14,9,14,0.0,0.0,0.372906812168,0.9278687996899999,0.0,0.0,0.00523598775598,0.0,0.0,0.0
1176,9_15,9,15,0.0,0.0,0.37306875014300006,0.927803701042,0.0,0.0,-0.004363323129989999,0.0,0.0,0.0
1177,9_16,9,16,0.0,0.0,0.373473545352,0.927640830776,0.0,0.0,-0.014311699866400001,0.0,0.0,0.0
1178,9_17,9,17,0.0,0.0,0.37274486283299996,0.9279338700740001,0.0,0.0,-0.004014257279590001,0.0,0.0,0.0
1179,9_18,9,18,0.0,0.0,0.37274486283299996,0.9279338700740001,0.0,0.0,-0.0329867228627,0.0,0.0,0.0
1180,9_19,9,19,0.0,0.0,0.372663883908,0.927966394667,0.0,0.0,-0.010471975512,0.0,0.0,0.0
1181,9_20,9,20,0.0,0.0,0.371934945942,0.928258797959,0.0,0.0,0.0230383461263,0.0,0.0,0.0
1182,9_21,9,21,0.0,0.0,0.372096951999,0.9281938689270001,0.0,0.0,-0.0214675497995,0.0,0.0,0.0
1183,9_22,9,22,0.0,0.0,0.37201595038699997,0.928226336977,0.0,0.0,-0.0109955742876,0.0,0.0,0.0
1184,9_23,9,23,0.0,0.0,0.371205778547,0.9285506286540001,0.0,0.0,-0.00750491578358,0.0,0.0,0.0
1185,9_24,9,24,0.0,0.0,0.37144885981,0.928453415388,0.0,0.0,-0.022863813201099998,0.0,0.0,0.0
1186,9_25,9,25,0.0,0.0,0.371286808463,0.928518231303,0.0,0.0,-0.0125663706144,0.0,0.0,0.0
1187,9_26,9,26,0.0,0.0,0.371286808463,0.928518231303,0.0,0.0,-0.0253072741539,0.0,0.0,0.0
1188,9_27,9,27,0.0,0.0,0.37063849002300003,0.9287772120990001,0.0,0.0,-0.050789081233,0.0,0.0,0.0
1189,9_28,9,28,0.0,0.0,0.37063849002300003,0.9287772120990001,0.0,0.0,0.004363323129989999,0.0,0.0,0.0
1190,9_29,9,29,0.0,0.0,0.370395324019,0.9288742131990001,0.0,0.0,0.00872664625997,0.0,0.0,0.0
1191,9_30,9,30,0.0,0.0,0.369989990938,0.9290357402200001,0.0,0.0,-0.036302848441499995,0.0,0.0,0.0
1192,9_31,9,31,0.0,0.0,0.370800586581,0.928712509333,0.0,0.0,0.0474729556542,0.0,0.0,0.0
1193,9_32,9,32,0.0,0.0,0.37096267184299997,0.9286477782770001,0.0,0.0,0.014311699866400001,0.0,0.0,0.0
1194,9_33,9,33,0.0,0.0,0.37063849002300003,0.9287772120990001,0.0,0.0,-0.0171042266695,0.0,0.0,0.0
1195,9_34,9,34,0.0,0.0,0.370395324019,0.9288742131990001,0.0,0.0,-0.0390953752447,0.0,0.0,0.0
1196,9_35,9,35,0.0,0.0,0.369179113533,0.929358263605,0.0,0.0,0.0034906585039899997,0.0,0.0,0.0
1197,9_36,9,36,0.0,0.0,0.36934131152500005,0.9292938155399999,0.0,0.0,0.0312413936107,0.0,0.0,0.0
1198,9_37,9,37,0.0,0.0,0.36966567375299997,0.929164834488,0.0,0.0,0.0127409035396,0.0,0.0,0.0
1199,9_38,9,38,0.0,0.0,0.369179113533,0.929358263605,0.0,0.0,-0.0671951762018,0.0,0.0,0.0
1200,9_39,9,39,0.0,0.0,0.36861133203,0.9295836088799999,0.0,0.0,-0.0609119908946,0.0,0.0,0.0
1201,9_40,9,40,0.0,0.0,0.368773569362,0.9295192599079999,0.0,0.0,-0.0012217304764,0.0,0.0,0.0
1202,9_41,9,41,0.0,0.0,0.36861133203,0.9295836088799999,0.0,0.0,-0.024609142453099996,0.0,0.0,0.0
1203,9_42,9,42,0.0,0.0,0.368530209154,0.929615772748,0.0,0.0,-0.0020943951023900003,0.0,0.0,0.0
1204,9_43,9,43,0.0,0.0,0.366988341962,0.930225540858,0.0,0.0,-0.0214675497995,0.0,0.0,0.0
1205,9_44,9,44,0.0,0.0,0.36723186185999995,0.930129431657,0.0,0.0,-0.00628318530718,0.0,0.0,0.0
1206,9_45,9,45,0.0,0.0,0.36723186185999995,0.930129431657,0.0,0.0,0.014835298642,0.0,0.0,0.0
1207,9_46,9,46,0.0,0.0,0.366501226724,0.9304175679819999,0.0,0.0,-0.0322885911619,0.0,0.0,0.0
1208,9_47,9,47,0.0,0.0,0.36666360964100003,0.9303535872799998,0.0,0.0,-0.0226892802759,0.0,0.0,0.0
1209,9_48,9,48,0.0,0.0,0.366095220599,0.930577395736,0.0,0.0,0.0132645023152,0.0,0.0,0.0
1210,9_49,9,49,0.0,0.0,0.36536423398400003,0.930864639207,0.0,0.0,-0.0333357887131,0.0,0.0,0.0
1211,9_50,9,50,0.0,0.0,0.365689144775,0.930737046321,0.0,0.0,0.0,0.0,0.0,0.0
1212,9_51,9,51,0.0,0.0,0.36560792125299996,0.930768955175,0.0,0.0,0.0207694180987,0.0,0.0,0.0
1213,9_52,9,52,0.0,0.0,0.362844668919,0.93184963714,0.0,0.0,-0.311541271481,0.0,0.0,0.0
1214,9_53,9,53,0.0,0.0,0.359508265466,0.933141900818,0.0,0.0,-0.401425727959,0.0,0.0,0.0
1215,9_54,9,54,0.0,0.0,0.351269776563,0.93627428891,0.0,0.0,-0.231256125889,0.0,0.0,0.0
1216,9_55,9,55,0.0,0.0,0.345298198999,0.9384930227600001,0.0,0.0,-0.201585528605,0.0,0.0,0.0
1217,9_56,9,56,0.0,0.0,0.343413828511,0.9391841898090001,0.0,0.0,-0.214326432145,0.0,0.0,0.0
1218,9_57,9,57,0.0,0.0,0.331831864835,0.943338546589,0.0,0.0,-0.6213372137100001,0.0,0.0,0.0
1219,9_58,9,58,0.0,0.0,0.314323848843,0.9493158157580001,0.0,0.0,-0.5167919915160001,0.0,0.0,0.0
1220,9_59,9,59,0.0,0.0,0.309929800577,0.950759443137,0.0,0.0,-0.49480084294,0.0,0.0,0.0
1221,9_60,9,60,0.0,0.0,0.294207138104,0.955741680523,0.0,0.0,-0.546986187575,0.0,0.0,0.0
1222,9_61,9,61,0.0,0.0,0.27915870465500003,0.960244977917,0.0,0.0,-0.575609587308,0.0,0.0,0.0
1223,9_62,9,62,0.0,0.0,0.274043145411,0.961717398435,0.0,0.0,-0.571420797103,0.0,0.0,0.0
1224,9_63,9,63,0.0,0.0,0.257301453681,0.9663311864640001,0.0,0.0,-0.508763476956,0.0,0.0,0.0
1225,9_64,9,64,0.0,0.0,0.252913747716,0.9674888300210001,0.0,0.0,-0.485899663755,0.0,0.0,0.0
1226,9_65,9,65,0.0,0.0,0.23980446465500002,0.970821208427,0.0,0.0,-0.48537606498,0.0,0.0,0.0
1227,9_66,9,66,0.0,0.0,0.22307998468899998,0.97480014384,0.0,0.0,-0.5674065398229999,0.0,0.0,0.0
1228,9_67,9,67,0.0,0.0,0.207484873634,0.9782382262070001,0.0,0.0,-0.5801474433630001,0.0,0.0,0.0
1229,9_68,9,68,0.0,0.0,0.189780933359,0.981826459887,0.0,0.0,-0.5318018230830001,0.0,0.0,0.0
1230,9_69,9,69,0.0,0.0,0.173304404339,0.9848683076620001,0.0,0.0,-0.493579112464,0.0,0.0,0.0
1231,9_70,9,70,0.0,0.0,0.159967330973,0.987122309049,0.0,0.0,-0.501084028248,0.0,0.0,0.0
1232,9_71,9,71,0.0,0.0,0.142801680073,0.989751322388,0.0,0.0,-0.5682792044489999,0.0,0.0,0.0
1233,9_72,9,72,0.0,0.0,0.126978048998,0.9919055272920001,0.0,0.0,-0.585383431119,0.0,0.0,0.0
1234,9_73,9,73,0.0,0.0,0.108519877105,0.994094279368,0.0,0.0,-0.5602506898899999,0.0,0.0,0.0
1235,9_74,9,74,0.0,0.0,0.094195192131,0.995553748313,0.0,0.0,-0.49811696851899995,0.0,0.0,0.0
1236,9_75,9,75,0.0,0.0,0.0772410731868,0.997012445566,0.0,0.0,-0.552920307032,0.0,0.0,0.0
1237,9_76,9,76,0.0,0.0,0.0721067328564,0.9973969215299999,0.0,0.0,-0.5675810727489999,0.0,0.0,0.0
1238,9_77,9,77,0.0,0.0,0.055734374387099994,0.998445631725,0.0,0.0,-0.589572221324,0.0,0.0,0.0
1239,9_78,9,78,0.0,0.0,0.036469292441500004,0.999334774092,0.0,0.0,-0.583114503091,0.0,0.0,0.0
1240,9_79,9,79,0.0,0.0,0.0310618635641,0.9995174638950001,0.0,0.0,-0.583987167717,0.0,0.0,0.0
1241,9_80,9,80,0.0,0.0,0.0156200615554,0.9998779993960001,0.0,0.0,-0.5351179486609999,0.0,0.0,0.0
1242,9_81,9,81,0.0,0.0,-0.00043633229915300006,0.999999904807,0.0,0.0,-0.495324441716,0.0,0.0,0.0
1243,9_82,9,82,0.0,0.0,-0.00514869854522,0.999986745364,0.0,0.0,-0.512079602535,0.0,0.0,0.0
1244,9_83,9,83,0.0,0.0,-0.023123551404400002,0.999732614938,0.0,0.0,-0.591666616426,0.0,0.0,0.0
1245,9_84,9,84,0.0,0.0,-0.0286194913723,0.999590378462,0.0,0.0,-0.593761011528,0.0,0.0,0.0
1246,9_85,9,85,0.0,0.0,-0.0451886341835,0.99897847191,0.0,0.0,-0.600393262686,0.0,0.0,0.0
1247,9_86,9,86,0.0,0.0,-0.0644452234414,0.997921245979,0.0,0.0,-0.591492083501,0.0,0.0,0.0
1248,9_87,9,87,0.0,0.0,-0.06984352736430001,0.9975579590610001,0.0,0.0,-0.576656784859,0.0,0.0,0.0
1249,9_88,9,88,0.0,0.0,-0.0845474154281,0.9964194571289999,0.0,0.0,-0.487295927157,0.0,0.0,0.0
1250,9_89,9,89,0.0,0.0,-0.0999275760327,0.994994713327,0.0,0.0,-0.499687764846,0.0,0.0,0.0
1251,9_90,9,90,0.0,0.0,-0.10470203849,0.994503636562,0.0,0.0,-0.5300564938310001,0.0,0.0,0.0
1252,9_91,9,91,0.0,0.0,-0.12394785839500001,0.9922887323749999,0.0,0.0,-0.622733477112,0.0,0.0,0.0
1253,9_92,9,92,0.0,0.0,-0.129574413483,0.991569700712,0.0,0.0,-0.609294441871,0.0,0.0,0.0
1254,9_93,9,93,0.0,0.0,-0.145478689265,0.9893613854250001,0.0,0.0,-0.563392282544,0.0,0.0,0.0
1255,9_94,9,94,0.0,0.0,-0.163239866957,0.986586410729,0.0,0.0,-0.540353936417,0.0,0.0,0.0
1256,9_95,9,95,0.0,0.0,-0.17717062691399998,0.984180150663,0.0,0.0,-0.509985207433,0.0,0.0,0.0
1257,9_96,9,96,0.0,0.0,-0.194833546347,0.980836321319,0.0,0.0,-0.606676447993,0.0,0.0,0.0
1258,9_97,9,97,0.0,0.0,-0.21183654123,0.977305110904,0.0,0.0,-0.63407811725,0.0,0.0,0.0
1259,9_98,9,98,0.0,0.0,-0.23174790349399998,0.9727758782089999,0.0,0.0,-0.609992573572,0.0,0.0,0.0
1260,9_99,9,99,0.0,0.0,-0.24615329302900002,0.969230909707,0.0,0.0,-0.37821284890699997,0.0,0.0,0.0
1261,9_100,9,100,0.0,0.0,-0.251393708421,0.967884912253,0.0,0.0,-0.14835298642,0.0,0.0,0.0
1262,9_101,9,101,0.0,0.0,-0.257301453681,0.9663311864640001,0.0,0.0,-0.26214845365,0.0,0.0,0.0
1263,9_102,9,102,0.0,0.0,-0.261346943155,0.965244930214,0.0,0.0,-0.322536845769,0.0,0.0,0.0
1264,9_103,9,103,0.0,0.0,-0.265976758172,0.963979441748,0.0,0.0,0.0230383461263,0.0,0.0,0.0
1265,9_104,9,104,0.0,0.0,-0.266060880235,0.9639562272259999,0.0,0.0,-0.00994837673637,0.0,0.0,0.0
1266,9_105,9,105,0.0,0.0,-0.265976758172,0.963979441748,0.0,0.0,0.011868238913600001,0.0,0.0,0.0
1267,9_106,9,106,0.0,0.0,-0.26749064478,0.963560457343,0.0,0.0,-0.0640535835482,0.0,0.0,0.0
1268,9_107,9,107,0.0,0.0,-0.267742895148,0.9634903954359999,0.0,0.0,-0.0160570291183,0.0,0.0,0.0
1269,9_108,9,108,0.0,0.0,-0.268247340815,0.963350073517,0.0,0.0,-0.0315904594611,0.0,0.0,0.0
1270,9_109,9,109,0.0,0.0,-0.268415473035,0.9633032408519999,0.0,0.0,-0.0191986217719,0.0,0.0,0.0
1271,9_110,9,110,0.0,0.0,-0.26900387138099996,0.963139095449,0.0,0.0,-0.0249582083035,0.0,0.0,0.0
1272,9_111,9,111,0.0,0.0,-0.269087920099,0.9631156167649999,0.0,0.0,-0.009250245035569999,0.0,0.0,0.0
1273,9_112,9,112,0.0,0.0,-0.26942409447,0.963021628687,0.0,0.0,-0.0432841654495,0.0,0.0,0.0
1274,9_113,9,113,0.0,0.0,-0.270348404596,0.962762556466,0.0,0.0,-0.0134390352404,0.0,0.0,0.0
1275,9_114,9,114,0.0,0.0,-0.270432420449,0.962738960451,0.0,0.0,-0.010821041362399999,0.0,0.0,0.0
1276,9_115,9,115,0.0,0.0,-0.271104473079,0.962549928407,0.0,0.0,-0.011344640138,0.0,0.0,0.0
1277,9_116,9,116,0.0,0.0,-0.271776393577,0.962360427228,0.0,0.0,-0.0434586983747,0.0,0.0,0.0
