,orientation_X,orientation_Y,orientation_Z,orientation_W,angular_velocity_X,angular_velocity_Y,angular_velocity_Z,linear_acceleration_X,linear_acceleration_Y,linear_acceleration_Z
0,0.0,0.0,0.6368186335279999,0.77101363671,0.0,0.0,0.0,0.0,0.0,0.0
1,0.0,0.0,0.6368186335279999,0.77101363671,0.0,0.0,0.0,0.0,0.0,0.0
2,0.0,0.0,0.6368186335279999,0.77101363671,0.0,0.0,0.0,0.0,0.0,0.0
3,0.0,0.0,0.6368186335279999,0.77101363671,0.0,0.0,0.0,0.0,0.0,0.0
4,0.0,0.0,0.6368186335279999,0.77101363671,0.0,0.0,0.0,0.0,0.0,0.0
5,0.0,0.0,0.6368186335279999,0.77101363671,0.0,0.0,0.0,0.0,0.0,0.0
6,0.0,0.0,0.6368186335279999,0.77101363671,0.0,0.0,0.0,0.0,0.0,0.0
7,0.0,0.0,0.6368186335279999,0.77101363671,0.0,0.0,0.0,0.0,0.0,0.0
8,0.0,0.0,0.6368186335279999,0.77101363671,0.0,0.0,0.0,0.0,0.0,0.0
9,0.0,0.0,0.6368186335279999,0.77101363671,0.0,0.0,0.0,0.0,0.0,0.0
10,0.0,0.0,0.6368186335279999,0.77101363671,0.0,0.0,0.0,0.0,0.0,0.0
11,0.0,0.0,0.6368186335279999,0.77101363671,0.0,0.0,0.0,0.0,0.0,0.0
12,0.0,0.0,0.6368186335279999,0.77101363671,0.0,0.0,0.0,0.0,0.0,0.0
13,0.0,0.0,0.6368186335279999,0.77101363671,0.0,0.0,0.0,0.0,0.0,0.0
14,0.0,0.0,0.6368186335279999,0.77101363671,0.0,0.0,0.0,0.0,0.0,0.0
15,0.0,0.0,0.6368186335279999,0.77101363671,0.0,0.0,0.0,0.0,0.0,0.0
16,0.0,0.0,0.6368186335279999,0.77101363671,0.0,0.0,0.0,0.0,0.0,0.0
17,0.0,0.0,0.6368186335279999,0.77101363671,0.0,0.0,-0.0005235987755980001,0.0,0.0,0.0
18,0.0,0.0,0.6368186335279999,0.77101363671,0.0,0.0,-0.00226892802759,0.0,0.0,0.0
19,0.0,0.0,0.6368186335279999,0.77101363671,0.0,0.0,0.000698131700798,0.0,0.0,0.0
20,0.0,0.0,0.6365494602049999,0.77123588137,0.0,0.0,-0.0010471975512,0.0,0.0,0.0
21,0.0,0.0,0.636616760808,0.771180329014,0.0,0.0,0.0102974425868,0.0,0.0,0.0
22,0.0,0.0,0.6366840565640001,0.7711247707850001,0.0,0.0,0.00523598775598,0.0,0.0,0.0
23,0.0,0.0,0.636616760808,0.771180329014,0.0,0.0,-0.0181514242207,0.0,0.0,0.0
24,0.0,0.0,0.636347529312,0.771402503197,0.0,0.0,0.005759586531579999,0.0,0.0,0.0
25,0.0,0.0,0.6362802093209999,0.771458032058,0.0,0.0,-0.00750491578358,0.0,0.0,0.0
26,0.0,0.0,0.635876187638,0.771791081831,0.0,0.0,-0.026529004630299998,0.0,0.0,0.0
27,0.0,0.0,0.635471991627,0.772123920014,0.0,0.0,0.00261799387799,0.0,0.0,0.0
28,0.0,0.0,0.635674111417,0.771957527377,0.0,0.0,0.00488692190558,0.0,0.0,0.0
29,0.0,0.0,0.635674111417,0.771957527377,0.0,0.0,0.0,0.0,0.0,0.0
30,0.0,0.0,0.635337220902,0.7722348190389999,0.0,0.0,-0.0251327412287,0.0,0.0,0.0
31,0.0,0.0,0.635337220902,0.7722348190389999,0.0,0.0,0.00872664625997,0.0,0.0,0.0
32,0.0,0.0,0.635404608684,0.7721793724670001,0.0,0.0,-0.005759586531579999,0.0,0.0,0.0
33,0.0,0.0,0.635202430824,0.77234569454,0.0,0.0,-0.00174532925199,0.0,0.0,0.0
34,0.0,0.0,0.635202430824,0.77234569454,0.0,0.0,0.0,0.0,0.0,0.0
35,0.0,0.0,0.635135028529,0.7724011234679999,0.0,0.0,-0.00558505360638,0.0,0.0,0.0
36,0.0,0.0,0.635067621397,0.772456546514,0.0,0.0,-0.00977384381117,0.0,0.0,0.0
37,0.0,0.0,0.634932792625,0.772567374958,0.0,0.0,-0.0038397243543899996,0.0,0.0,0.0
38,0.0,0.0,0.634932792625,0.772567374958,0.0,0.0,0.00558505360638,0.0,0.0,0.0
39,0.0,0.0,0.635000209429,0.772511963678,0.0,0.0,0.00174532925199,0.0,0.0,0.0
40,0.0,0.0,0.634865370985,0.7726227803550001,0.0,0.0,-0.012391837689200002,0.0,0.0,0.0
41,0.0,0.0,0.634865370985,0.7726227803550001,0.0,0.0,-0.00488692190558,0.0,0.0,0.0
42,0.0,0.0,0.634797944511,0.772678179868,0.0,0.0,0.0013962634016,0.0,0.0,0.0
43,0.0,0.0,0.634797944511,0.772678179868,0.0,0.0,0.000349065850399,0.0,0.0,0.0
44,0.0,0.0,0.634730513202,0.772733573497,0.0,0.0,-0.008028514559169999,0.0,0.0,0.0
45,0.0,0.0,0.63466307706,0.772788961242,0.0,0.0,0.00226892802759,0.0,0.0,0.0
46,0.0,0.0,0.63466307706,0.772788961242,0.0,0.0,-0.00994837673637,0.0,0.0,0.0
47,0.0,0.0,0.6345281902759999,0.772899719074,0.0,0.0,-0.0013962634016,0.0,0.0,0.0
48,0.0,0.0,0.63466307706,0.772788961242,0.0,0.0,0.00314159265359,0.0,0.0,0.0
49,0.0,0.0,0.634460739636,0.772955089162,0.0,0.0,-0.00558505360638,0.0,0.0,0.0
50,0.0,0.0,0.634393284164,0.773010453363,0.0,0.0,-0.00593411945678,0.0,0.0,0.0
51,0.0,0.0,0.634258358726,0.773121164104,0.0,0.0,-0.0005235987755980001,0.0,0.0,0.0
52,0.0,0.0,0.634393284164,0.773010453363,0.0,0.0,-0.0019198621771900001,0.0,0.0,0.0
53,0.0,0.0,0.634393284164,0.773010453363,0.0,0.0,0.005410520681180001,0.0,0.0,0.0
54,0.0,0.0,0.63432582386,0.773065811677,0.0,0.0,-0.00977384381117,0.0,0.0,0.0
55,0.0,0.0,0.634123413968,0.773231851295,0.0,0.0,-0.004363323129989999,0.0,0.0,0.0
56,0.0,0.0,0.634190888762,0.7731765106440001,0.0,0.0,0.00157079632679,0.0,0.0,0.0
57,0.0,0.0,0.634055934345,0.7732871860580001,0.0,0.0,-0.00610865238198,0.0,0.0,0.0
58,0.0,0.0,0.6339884498939999,0.773342514932,0.0,0.0,-0.000174532925199,0.0,0.0,0.0
59,0.0,0.0,0.634055934345,0.7732871860580001,0.0,0.0,-0.00296705972839,0.0,0.0,0.0
60,0.0,0.0,0.634055934345,0.7732871860580001,0.0,0.0,-0.0038397243543899996,0.0,0.0,0.0
61,0.0,0.0,0.633853466507,0.773453155011,0.0,0.0,-0.010821041362399999,0.0,0.0,0.0
62,0.0,0.0,0.633785967573,0.773508466216,0.0,0.0,-0.00279252680319,0.0,0.0,0.0
63,0.0,0.0,0.633583441813,0.773674364485,0.0,0.0,0.0013962634016,0.0,0.0,0.0
64,0.0,0.0,0.633650955225,0.7736190709530001,0.0,0.0,0.006632251157579999,0.0,0.0,0.0
65,0.0,0.0,0.633650955225,0.7736190709530001,0.0,0.0,-0.0157079632679,0.0,0.0,0.0
66,0.0,0.0,0.633515923575,0.773729652124,0.0,0.0,-0.0111701072128,0.0,0.0,0.0
67,0.0,0.0,0.633583441813,0.773674364485,0.0,0.0,0.0020943951023900003,0.0,0.0,0.0
68,0.0,0.0,0.633448400513,0.773784933872,0.0,0.0,0.00296705972839,0.0,0.0,0.0
69,0.0,0.0,0.633448400513,0.773784933872,0.0,0.0,-0.005410520681180001,0.0,0.0,0.0
70,0.0,0.0,0.633380872628,0.773840209727,0.0,0.0,-0.0183259571459,0.0,0.0,0.0
71,0.0,0.0,0.633043160856,0.7741165005949999,0.0,0.0,-0.00279252680319,0.0,0.0,0.0
72,0.0,0.0,0.633043160856,0.7741165005949999,0.0,0.0,-0.0050614548307799994,0.0,0.0,0.0
73,0.0,0.0,0.633110712854,0.77406125421,0.0,0.0,0.00418879020479,0.0,0.0,0.0
74,0.0,0.0,0.6328404759390001,0.774282204376,0.0,0.0,-0.006981317007979999,0.0,0.0,0.0
75,0.0,0.0,0.632705328563,0.7743926440819999,0.0,0.0,-0.00244346095279,0.0,0.0,0.0
76,0.0,0.0,0.632705328563,0.7743926440819999,0.0,0.0,-0.015533430342700001,0.0,0.0,0.0
77,0.0,0.0,0.632637747647,0.774447855089,0.0,0.0,-0.009599310885969999,0.0,0.0,0.0
78,0.0,0.0,0.632637747647,0.774447855089,0.0,0.0,0.00174532925199,0.0,0.0,0.0
79,0.0,0.0,0.632502571362,0.77455825941,0.0,0.0,-0.013089969390000001,0.0,0.0,0.0
80,0.0,0.0,0.632434975995,0.7746134527230001,0.0,0.0,0.00750491578358,0.0,0.0,0.0
81,0.0,0.0,0.632299770811,0.7747238216500001,0.0,0.0,-0.0277507351067,0.0,0.0,0.0
82,0.0,0.0,0.6321645463660001,0.774834166979,0.0,0.0,0.00820304748437,0.0,0.0,0.0
83,0.0,0.0,0.632029302665,0.774944488704,0.0,0.0,-0.0132645023152,0.0,0.0,0.0
84,0.0,0.0,0.631961673594,0.774999640715,0.0,0.0,-0.00279252680319,0.0,0.0,0.0
85,0.0,0.0,0.632029302665,0.774944488704,0.0,0.0,-0.00418879020479,0.0,0.0,0.0
86,0.0,0.0,0.631894039711,0.7750547868240001,0.0,0.0,-0.0183259571459,0.0,0.0,0.0
87,0.0,0.0,0.63169110919,0.775220189734,0.0,0.0,0.0116937059884,0.0,0.0,0.0
88,0.0,0.0,0.631758757508,0.7751650613330001,0.0,0.0,0.007853981633970001,0.0,0.0,0.0
89,0.0,0.0,0.631420467816,0.775440644294,0.0,0.0,-0.00855211333477,0.0,0.0,0.0
90,0.0,0.0,0.631555798122,0.7753304288230001,0.0,0.0,0.0127409035396,0.0,0.0,0.0
91,0.0,0.0,0.631555798122,0.7753304288230001,0.0,0.0,-0.011868238913600001,0.0,0.0,0.0
92,0.0,0.0,0.631285118275,0.775550836144,0.0,0.0,0.012217304764,0.0,0.0,0.0
93,0.0,0.0,0.631352795449,0.7754957431720001,0.0,0.0,0.0038397243543899996,0.0,0.0,0.0
94,0.0,0.0,0.6310143615079999,0.775771148967,0.0,0.0,-0.0195476876223,0.0,0.0,0.0
95,0.0,0.0,0.631285118275,0.775550836144,0.0,0.0,0.027052603405900003,0.0,0.0,0.0
96,0.0,0.0,0.63087895429,0.7758812699330001,0.0,0.0,-0.0205948851735,0.0,0.0,0.0
97,0.0,0.0,0.630946660302,0.775826212405,0.0,0.0,-0.00157079632679,0.0,0.0,0.0
98,0.0,0.0,0.630608082205,0.7761014409579999,0.0,0.0,-0.000174532925199,0.0,0.0,0.0
99,0.0,0.0,0.630946660302,0.775826212405,0.0,0.0,-0.022340214425499997,0.0,0.0,0.0
100,0.0,0.0,0.630472617346,0.7762114910100001,0.0,0.0,0.013962634016,0.0,0.0,0.0
101,0.0,0.0,0.630472617346,0.7762114910100001,0.0,0.0,-0.030717794835099996,0.0,0.0,0.0
102,0.0,0.0,0.630337133282,0.776321517417,0.0,0.0,0.0303687289847,0.0,0.0,0.0
103,0.0,0.0,0.630337133282,0.776321517417,0.0,0.0,-0.034906585039900004,0.0,0.0,0.0
104,0.0,0.0,0.630404877715,0.7762665071699999,0.0,0.0,0.00418879020479,0.0,0.0,0.0
105,0.0,0.0,0.629862787876,0.776706423592,0.0,0.0,-0.015533430342700001,0.0,0.0,0.0
106,0.0,0.0,0.630201630017,0.776431520177,0.0,0.0,0.0111701072128,0.0,0.0,0.0
107,0.0,0.0,0.630133871185,0.7764865126870001,0.0,0.0,-0.015533430342700001,0.0,0.0,0.0
108,0.0,0.0,0.629998339126,0.7765964799680001,0.0,0.0,0.0178023583703,0.0,0.0,0.0
109,0.0,0.0,0.629659425027,0.776871294665,0.0,0.0,-0.039618974020300006,0.0,0.0,0.0
110,0.0,0.0,0.629456019022,0.777036112492,0.0,0.0,-0.015533430342700001,0.0,0.0,0.0
111,0.0,0.0,0.6297272174390001,0.776816343556,0.0,0.0,0.00715584993318,0.0,0.0,0.0
112,0.0,0.0,0.629388207432,0.777091039934,0.0,0.0,-0.00488692190558,0.0,0.0,0.0
113,0.0,0.0,0.629456019022,0.777036112492,0.0,0.0,0.0160570291183,0.0,0.0,0.0
114,0.0,0.0,0.629252569875,0.777200877062,0.0,0.0,-0.028274333882299996,0.0,0.0,0.0
115,0.0,0.0,0.629456019022,0.777036112492,0.0,0.0,0.0193731546971,0.0,0.0,0.0
116,0.0,0.0,0.629456019022,0.777036112492,0.0,0.0,-0.014660765716799999,0.0,0.0,0.0
117,0.0,0.0,0.628913392129,0.7774753662989999,0.0,0.0,0.0178023583703,0.0,0.0,0.0
118,0.0,0.0,0.629116913149,0.777310690516,0.0,0.0,0.0354301838155,0.0,0.0,0.0
119,0.0,0.0,0.628913392129,0.7774753662989999,0.0,0.0,-0.0436332312999,0.0,0.0,0.0
120,0.0,0.0,0.628777687501,0.7775851205500001,0.0,0.0,0.00418879020479,0.0,0.0,0.0
121,0.0,0.0,0.6283704587110001,0.777914241173,0.0,0.0,-0.00418879020479,0.0,0.0,0.0
122,0.0,0.0,0.628845542209,0.777530246385,0.0,0.0,-0.0127409035396,0.0,0.0,0.0
123,0.0,0.0,0.628098877137,0.778133536444,0.0,0.0,0.014137166941200001,0.0,0.0,0.0
124,0.0,0.0,0.628234677493,0.778023900658,0.0,0.0,-0.0280998009571,0.0,0.0,0.0
125,0.0,0.0,0.6283025704940001,0.777969073878,0.0,0.0,0.0207694180987,0.0,0.0,0.0
126,0.0,0.0,0.627759292552,0.7784075221979999,0.0,0.0,-0.045553093477099994,0.0,0.0,0.0
127,0.0,0.0,0.6280309697850001,0.778188345448,0.0,0.0,0.029496064358700003,0.0,0.0,0.0
128,0.0,0.0,0.627487538828,0.778626604102,0.0,0.0,-0.023387411976700002,0.0,0.0,0.0
129,0.0,0.0,0.627691361291,0.778462301567,0.0,0.0,-0.0207694180987,0.0,0.0,0.0
130,0.0,0.0,0.62741958845,0.7786813597550001,0.0,0.0,-0.036302848441499995,0.0,0.0,0.0
131,0.0,0.0,0.627555484428,0.778571842519,0.0,0.0,0.0431096325243,0.0,0.0,0.0
132,0.0,0.0,0.627827219032,0.778352736902,0.0,0.0,0.0275762021815,0.0,0.0,0.0
133,0.0,0.0,0.62714773916,0.7789003230629999,0.0,0.0,-0.00226892802759,0.0,0.0,0.0
134,0.0,0.0,0.627351633293,0.778736109478,0.0,0.0,0.028972465583099998,0.0,0.0,0.0
135,0.0,0.0,0.626739821955,0.7792285900660001,0.0,0.0,-0.04502949470150001,0.0,0.0,0.0
136,0.0,0.0,0.626943802042,0.779064483262,0.0,0.0,0.026529004630299998,0.0,0.0,0.0
137,0.0,0.0,0.626943802042,0.779064483262,0.0,0.0,-0.014137166941200001,0.0,0.0,0.0
138,0.0,0.0,0.626535798911,0.779392643462,0.0,0.0,0.0401425727959,0.0,0.0,0.0
139,0.0,0.0,0.626807820091,0.779173893732,0.0,0.0,0.0310668606855,0.0,0.0,0.0
140,0.0,0.0,0.626195665085,0.7796659470749999,0.0,0.0,-0.0387463093943,0.0,0.0,0.0
141,0.0,0.0,0.626535798911,0.779392643462,0.0,0.0,0.0005235987755980001,0.0,0.0,0.0
142,0.0,0.0,0.626127624012,0.7797205899869999,0.0,0.0,0.00453785605519,0.0,0.0,0.0
143,0.0,0.0,0.626127624012,0.7797205899869999,0.0,0.0,-0.0506145483078,0.0,0.0,0.0
144,0.0,0.0,0.625923472184,0.7798844830930001,0.0,0.0,0.0485201532054,0.0,0.0,0.0
145,0.0,0.0,0.6258554120409999,0.7799391022509999,0.0,0.0,-0.032637657012299995,0.0,0.0,0.0
146,0.0,0.0,0.626127624012,0.7797205899869999,0.0,0.0,0.009599310885969999,0.0,0.0,0.0
147,0.0,0.0,0.625651203016,0.780102924084,0.0,0.0,0.008028514559169999,0.0,0.0,0.0
148,0.0,0.0,0.626195665085,0.7796659470749999,0.0,0.0,-0.0287979326579,0.0,0.0,0.0
149,0.0,0.0,0.62605957817,0.779775226961,0.0,0.0,0.0385717764691,0.0,0.0,0.0
150,0.0,0.0,0.625719277456,0.780048322747,0.0,0.0,-0.043982297150300005,0.0,0.0,0.0
151,0.0,0.0,0.625923472184,0.7798844830930001,0.0,0.0,0.033684854563500004,0.0,0.0,0.0
152,0.0,0.0,0.625719277456,0.780048322747,0.0,0.0,0.00837758040957,0.0,0.0,0.0
153,0.0,0.0,0.625991527561,0.779829857996,0.0,0.0,-0.0321140582367,0.0,0.0,0.0
154,0.0,0.0,0.625651203016,0.780102924084,0.0,0.0,-0.0476474885794,0.0,0.0,0.0
155,0.0,0.0,0.625719277456,0.780048322747,0.0,0.0,0.0403171057211,0.0,0.0,0.0
156,0.0,0.0,0.625923472184,0.7798844830930001,0.0,0.0,0.0191986217719,0.0,0.0,0.0
157,0.0,0.0,0.625787347131,0.7799937154690001,0.0,0.0,0.0197222205475,0.0,0.0,0.0
158,0.0,0.0,0.626127624012,0.7797205899869999,0.0,0.0,0.020071286397900002,0.0,0.0,0.0
159,0.0,0.0,0.625378857614,0.780321270022,0.0,0.0,-0.0364773813667,0.0,0.0,0.0
160,0.0,0.0,0.625378857614,0.780321270022,0.0,0.0,0.0101229096616,0.0,0.0,0.0
161,0.0,0.0,0.625719277456,0.780048322747,0.0,0.0,-0.0188495559215,0.0,0.0,0.0
162,0.0,0.0,0.625583123811,0.780157519481,0.0,0.0,-0.020071286397900002,0.0,0.0,0.0
163,0.0,0.0,0.625719277456,0.780048322747,0.0,0.0,0.00226892802759,0.0,0.0,0.0
164,0.0,0.0,0.62544695111,0.7802666924510001,0.0,0.0,0.0331612557879,0.0,0.0,0.0
165,0.0,0.0,0.625651203016,0.780102924084,0.0,0.0,-0.029496064358700003,0.0,0.0,0.0
166,0.0,0.0,0.625515039842,0.780212108937,0.0,0.0,0.017278759594700002,0.0,0.0,0.0
167,0.0,0.0,0.625310759356,0.7803758416519999,0.0,0.0,-0.0237364778271,0.0,0.0,0.0
168,0.0,0.0,0.625515039842,0.780212108937,0.0,0.0,-0.007679448708779999,0.0,0.0,0.0
169,0.0,0.0,0.6250383187080001,0.780594068736,0.0,0.0,0.0116937059884,0.0,0.0,0.0
170,0.0,0.0,0.625242656336,0.780430407338,0.0,0.0,-0.04084070449669999,0.0,0.0,0.0
171,0.0,0.0,0.625106436011,0.780539520881,0.0,0.0,0.0214675497995,0.0,0.0,0.0
172,0.0,0.0,0.624765801902,0.7808122007070001,0.0,0.0,-0.0157079632679,0.0,0.0,0.0
173,0.0,0.0,0.625174548554,0.780484967081,0.0,0.0,-0.0212930168743,0.0,0.0,0.0
174,0.0,0.0,0.624561364338,0.780975737252,0.0,0.0,0.00558505360638,0.0,0.0,0.0
175,0.0,0.0,0.624697660804,0.780866718836,0.0,0.0,-0.0293215314335,0.0,0.0,0.0
176,0.0,0.0,0.624902069823,0.780703146613,0.0,0.0,0.036128315516300004,0.0,0.0,0.0
177,0.0,0.0,0.624425048846,0.7810847318780001,0.0,0.0,-0.025830872929500003,0.0,0.0,0.0
178,0.0,0.0,0.62449320897,0.781030237539,0.0,0.0,0.0261799387799,0.0,0.0,0.0
179,0.0,0.0,0.624765801902,0.7808122007070001,0.0,0.0,-0.0370009801423,0.0,0.0,0.0
180,0.0,0.0,0.62449320897,0.781030237539,0.0,0.0,-0.036302848441499995,0.0,0.0,0.0
181,0.0,0.0,0.624561364338,0.780975737252,0.0,0.0,-0.0185004900711,0.0,0.0,0.0
182,0.0,0.0,0.624288714333,0.7811937027120001,0.0,0.0,-0.041015237421900004,0.0,0.0,0.0
183,0.0,0.0,0.6243568839670001,0.781139220269,0.0,0.0,0.0345575191895,0.0,0.0,0.0
184,0.0,0.0,0.623947794861,0.781466025678,0.0,0.0,-0.0253072741539,0.0,0.0,0.0
185,0.0,0.0,0.623947794861,0.781466025678,0.0,0.0,0.015533430342700001,0.0,0.0,0.0
186,0.0,0.0,0.6238795967090001,0.781520472419,0.0,0.0,-0.044505895925900006,0.0,0.0,0.0
187,0.0,0.0,0.623743186154,0.781629348046,0.0,0.0,-0.017278759594700002,0.0,0.0,0.0
188,0.0,0.0,0.623947794861,0.781466025678,0.0,0.0,-0.00261799387799,0.0,0.0,0.0
189,0.0,0.0,0.623947794861,0.781466025678,0.0,0.0,0.030892327760299997,0.0,0.0,0.0
190,0.0,0.0,0.623743186154,0.781629348046,0.0,0.0,-0.0457276264023,0.0,0.0,0.0
191,0.0,0.0,0.623743186154,0.781629348046,0.0,0.0,0.0329867228627,0.0,0.0,0.0
192,0.0,0.0,0.623265599609,0.7820102252169999,0.0,0.0,-0.0371755130675,0.0,0.0,0.0
193,0.0,0.0,0.623197353969,0.782064612424,0.0,0.0,-0.0244346095279,0.0,0.0,0.0
194,0.0,0.0,0.622924323959,0.7822821016879999,0.0,0.0,0.0329867228627,0.0,0.0,0.0
195,0.0,0.0,0.622856054595,0.782336459111,0.0,0.0,-0.0164060949687,0.0,0.0,0.0
196,0.0,0.0,0.623060848454,0.782173368969,0.0,0.0,-0.00733038285838,0.0,0.0,0.0
197,0.0,0.0,0.622378036266,0.782716794233,0.0,0.0,-0.0162315620435,0.0,0.0,0.0
198,0.0,0.0,0.622719501638,0.782445156084,0.0,0.0,0.00174532925199,0.0,0.0,0.0
199,0.0,0.0,0.622856054595,0.782336459111,0.0,0.0,0.025830872929500003,0.0,0.0,0.0
200,0.0,0.0,0.622241416936,0.78282540777,0.0,0.0,-0.0364773813667,0.0,0.0,0.0
201,0.0,0.0,0.622173100162,0.782879705596,0.0,0.0,0.0013962634016,0.0,0.0,0.0
202,0.0,0.0,0.622582929713,0.7825538292219999,0.0,0.0,0.0019198621771900001,0.0,0.0,0.0
203,0.0,0.0,0.622719501638,0.782445156084,0.0,0.0,0.027052603405900003,0.0,0.0,0.0
204,0.0,0.0,0.622719501638,0.782445156084,0.0,0.0,-0.006632251157579999,0.0,0.0,0.0
205,0.0,0.0,0.622104778651,0.7829339974609999,0.0,0.0,0.00471238898038,0.0,0.0,0.0
206,0.0,0.0,0.622514636638,0.782608156852,0.0,0.0,0.0019198621771900001,0.0,0.0,0.0
207,0.0,0.0,0.6224463388220001,0.7826624785230001,0.0,0.0,-0.0134390352404,0.0,0.0,0.0
208,0.0,0.0,0.622651218046,0.782499495633,0.0,0.0,0.013788101090799998,0.0,0.0,0.0
209,0.0,0.0,0.622241416936,0.78282540777,0.0,0.0,0.010471975512,0.0,0.0,0.0
210,0.0,0.0,0.622378036266,0.782716794233,0.0,0.0,-0.0185004900711,0.0,0.0,0.0
211,0.0,0.0,0.622582929713,0.7825538292219999,0.0,0.0,0.0101229096616,0.0,0.0,0.0
212,0.0,0.0,0.622036452402,0.782988283363,0.0,0.0,0.000174532925199,0.0,0.0,0.0
213,0.0,0.0,0.62230972897,0.782771103982,0.0,0.0,0.0013962634016,0.0,0.0,0.0
214,0.0,0.0,0.622378036266,0.782716794233,0.0,0.0,0.0375245789179,0.0,0.0,0.0
215,0.0,0.0,0.622036452402,0.782988283363,0.0,0.0,-0.054105206811800005,0.0,0.0,0.0
216,0.0,0.0,0.622104778651,0.7829339974609999,0.0,0.0,0.00872664625997,0.0,0.0,0.0
217,0.0,0.0,0.621968121415,0.7830425633020001,0.0,0.0,-0.0169296937443,0.0,0.0,0.0
218,0.0,0.0,0.621968121415,0.7830425633020001,0.0,0.0,0.0253072741539,0.0,0.0,0.0
219,0.0,0.0,0.622036452402,0.782988283363,0.0,0.0,-0.008028514559169999,0.0,0.0,0.0
220,0.0,0.0,0.621489671917,0.783422355885,0.0,0.0,0.000698131700798,0.0,0.0,0.0
221,0.0,0.0,0.6217631000399999,0.7832053673389999,0.0,0.0,-0.008028514559169999,0.0,0.0,0.0
222,0.0,0.0,0.622036452402,0.782988283363,0.0,0.0,0.027052603405900003,0.0,0.0,0.0
223,0.0,0.0,0.6214213030529999,0.7834765881069999,0.0,0.0,-0.022340214425499997,0.0,0.0,0.0
224,0.0,0.0,0.621489671917,0.783422355885,0.0,0.0,0.0164060949687,0.0,0.0,0.0
225,0.0,0.0,0.6215580360490001,0.783368117696,0.0,0.0,-0.0216420827247,0.0,0.0,0.0
226,0.0,0.0,0.6214213030529999,0.7834765881069999,0.0,0.0,-0.009250245035569999,0.0,0.0,0.0
227,0.0,0.0,0.6218997856930001,0.783096837278,0.0,0.0,0.0226892802759,0.0,0.0,0.0
228,0.0,0.0,0.621831445234,0.783151105291,0.0,0.0,-0.0244346095279,0.0,0.0,0.0
229,0.0,0.0,0.6213529294569999,0.7835308143619999,0.0,0.0,0.0160570291183,0.0,0.0,0.0
230,0.0,0.0,0.6212845511289999,0.783585034651,0.0,0.0,0.000698131700798,0.0,0.0,0.0
231,0.0,0.0,0.6213529294569999,0.7835308143619999,0.0,0.0,0.0134390352404,0.0,0.0,0.0
232,0.0,0.0,0.6208057703809999,0.7839644095630001,0.0,0.0,-0.0237364778271,0.0,0.0,0.0
233,0.0,0.0,0.6208057703809999,0.7839644095630001,0.0,0.0,0.00750491578358,0.0,0.0,0.0
234,0.0,0.0,0.6208057703809999,0.7839644095630001,0.0,0.0,-0.0274016692563,0.0,0.0,0.0
235,0.0,0.0,0.620874181818,0.7839102310539999,0.0,0.0,0.00418879020479,0.0,0.0,0.0
236,0.0,0.0,0.620189854765,0.78445174743,0.0,0.0,-0.0404916386463,0.0,0.0,0.0
237,0.0,0.0,0.620326757977,0.7843434919329999,0.0,0.0,0.00174532925199,0.0,0.0,0.0
238,0.0,0.0,0.620052932662,0.7845599790309999,0.0,0.0,0.00942477796077,0.0,0.0,0.0
239,0.0,0.0,0.620052932662,0.7845599790309999,0.0,0.0,-0.0274016692563,0.0,0.0,0.0
240,0.0,0.0,0.620258308733,0.784397622669,0.0,0.0,0.027227136331099997,0.0,0.0,0.0
241,0.0,0.0,0.620052932662,0.7845599790309999,0.0,0.0,-0.0202458193231,0.0,0.0,0.0
242,0.0,0.0,0.619984464527,0.7846140858699999,0.0,0.0,-0.036302848441499995,0.0,0.0,0.0
243,0.0,0.0,0.6197790317949999,0.784776370533,0.0,0.0,0.023387411976700002,0.0,0.0,0.0
244,0.0,0.0,0.619984464527,0.7846140858699999,0.0,0.0,-0.00645771823238,0.0,0.0,0.0
245,0.0,0.0,0.620121396075,0.784505866218,0.0,0.0,0.006632251157579999,0.0,0.0,0.0
246,0.0,0.0,0.61964205304,0.7848845304269999,0.0,0.0,0.0111701072128,0.0,0.0,0.0
247,0.0,0.0,0.619984464527,0.7846140858699999,0.0,0.0,0.061261056745,0.0,0.0,0.0
248,0.0,0.0,0.6206689333250001,0.784072748669,0.0,0.0,-0.011344640138,0.0,0.0,0.0
249,0.0,0.0,0.620532077362,0.784181063891,0.0,0.0,-0.0183259571459,0.0,0.0,0.0
250,0.0,0.0,0.620326757977,0.7843434919329999,0.0,0.0,-0.0335103216383,0.0,0.0,0.0
251,0.0,0.0,0.620052932662,0.7845599790309999,0.0,0.0,-0.036302848441499995,0.0,0.0,0.0
252,0.0,0.0,0.619984464527,0.7846140858699999,0.0,0.0,0.000174532925199,0.0,0.0,0.0
253,0.0,0.0,0.620121396075,0.784505866218,0.0,0.0,0.00558505360638,0.0,0.0,0.0
254,0.0,0.0,0.620189854765,0.78445174743,0.0,0.0,0.0019198621771900001,0.0,0.0,0.0
255,0.0,0.0,0.6197790317949999,0.784776370533,0.0,0.0,0.00244346095279,0.0,0.0,0.0
256,0.0,0.0,0.619847514093,0.784722281621,0.0,0.0,0.0150098315672,0.0,0.0,0.0
257,0.0,0.0,0.619710544777,0.784830453469,0.0,0.0,-0.0165806278939,0.0,0.0,0.0
258,0.0,0.0,0.619710544777,0.784830453469,0.0,0.0,-0.000698131700798,0.0,0.0,0.0
259,0.0,0.0,0.619299523583,0.785154825553,0.0,0.0,-0.00733038285838,0.0,0.0,0.0
260,0.0,0.0,0.619368038909,0.785100778485,0.0,0.0,-0.021118483949099997,0.0,0.0,0.0
261,0.0,0.0,0.619368038909,0.785100778485,0.0,0.0,0.0190240888467,0.0,0.0,0.0
262,0.0,0.0,0.6190254151219999,0.7853709540289999,0.0,0.0,-0.0237364778271,0.0,0.0,0.0
263,0.0,0.0,0.6190939493100001,0.785316930881,0.0,0.0,-0.013962634016,0.0,0.0,0.0
264,0.0,0.0,0.6190254151219999,0.7853709540289999,0.0,0.0,0.0162315620435,0.0,0.0,0.0
265,0.0,0.0,0.618682673481,0.7856409800499999,0.0,0.0,-0.0249582083035,0.0,0.0,0.0
266,0.0,0.0,0.618751231234,0.78558698681,0.0,0.0,-0.0013962634016,0.0,0.0,0.0
267,0.0,0.0,0.6185455438399999,0.78574894858,0.0,0.0,0.0158824961931,0.0,0.0,0.0
268,0.0,0.0,0.618476971954,0.78580292387,0.0,0.0,-0.0275762021815,0.0,0.0,0.0
269,0.0,0.0,0.6185455438399999,0.78574894858,0.0,0.0,0.0101229096616,0.0,0.0,0.0
270,0.0,0.0,0.6185455438399999,0.78574894858,0.0,0.0,-0.00994837673637,0.0,0.0,0.0
271,0.0,0.0,0.618339814052,0.785910856496,0.0,0.0,0.006632251157579999,0.0,0.0,0.0
272,0.0,0.0,0.61772237046,0.786396257006,0.0,0.0,-0.0415388361975,0.0,0.0,0.0
273,0.0,0.0,0.617585109014,0.78650405792,0.0,0.0,-0.0101229096616,0.0,0.0,0.0
274,0.0,0.0,0.6176537420889999,0.786450160458,0.0,0.0,-0.0185004900711,0.0,0.0,0.0
275,0.0,0.0,0.61772237046,0.786396257006,0.0,0.0,0.00750491578358,0.0,0.0,0.0
276,0.0,0.0,0.6176537420889999,0.786450160458,0.0,0.0,-0.0102974425868,0.0,0.0,0.0
277,0.0,0.0,0.617310529686,0.78671958787,0.0,0.0,0.0012217304764,0.0,0.0,0.0
278,0.0,0.0,0.617379181571,0.786665714369,0.0,0.0,-0.0034906585039899997,0.0,0.0,0.0
279,0.0,0.0,0.617447828754,0.786611834876,0.0,0.0,0.00418879020479,0.0,0.0,0.0
280,0.0,0.0,0.617516471235,0.786557949393,0.0,0.0,-0.0321140582367,0.0,0.0,0.0
281,0.0,0.0,0.617173211813,0.7868273169,0.0,0.0,-0.0404916386463,0.0,0.0,0.0
282,0.0,0.0,0.617104545827,0.786881172427,0.0,0.0,0.00837758040957,0.0,0.0,0.0
283,0.0,0.0,0.617104545827,0.786881172427,0.0,0.0,0.005759586531579999,0.0,0.0,0.0
284,0.0,0.0,0.617310529686,0.78671958787,0.0,0.0,-0.0151843644924,0.0,0.0,0.0
285,0.0,0.0,0.617035875141,0.786935021961,0.0,0.0,0.007679448708779999,0.0,0.0,0.0
286,0.0,0.0,0.6172418731,0.7867734553810001,0.0,0.0,-0.00471238898038,0.0,0.0,0.0
287,0.0,0.0,0.617173211813,0.7868273169,0.0,0.0,-0.0214675497995,0.0,0.0,0.0
288,0.0,0.0,0.616761145412,0.787150360167,0.0,0.0,0.004014257279590001,0.0,0.0,0.0
289,0.0,0.0,0.617104545827,0.786881172427,0.0,0.0,0.022165681500300002,0.0,0.0,0.0
290,0.0,0.0,0.6172418731,0.7867734553810001,0.0,0.0,-0.0012217304764,0.0,0.0,0.0
291,0.0,0.0,0.616623752364,0.787257993304,0.0,0.0,-0.00593411945678,0.0,0.0,0.0
292,0.0,0.0,0.616898519672,0.787042703051,0.0,0.0,0.010646508437200001,0.0,0.0,0.0
293,0.0,0.0,0.6172418731,0.7867734553810001,0.0,0.0,0.007853981633970001,0.0,0.0,0.0
294,0.0,0.0,0.616692451236,0.7872041797329999,0.0,0.0,-0.0197222205475,0.0,0.0,0.0
295,0.0,0.0,0.616692451236,0.7872041797329999,0.0,0.0,0.0,0.0,0.0,0.0
296,0.0,0.0,0.616761145412,0.787150360167,0.0,0.0,0.009075712110370001,0.0,0.0,0.0
297,0.0,0.0,0.616898519672,0.787042703051,0.0,0.0,-0.00855211333477,0.0,0.0,0.0
298,0.0,0.0,0.616761145412,0.787150360167,0.0,0.0,-0.0212930168743,0.0,0.0,0.0
299,0.0,0.0,0.616692451236,0.7872041797329999,0.0,0.0,0.007679448708779999,0.0,0.0,0.0
300,0.0,0.0,0.616692451236,0.7872041797329999,0.0,0.0,-0.0019198621771900001,0.0,0.0,0.0
301,0.0,0.0,0.616761145412,0.787150360167,0.0,0.0,-0.00314159265359,0.0,0.0,0.0
302,0.0,0.0,0.616692451236,0.7872041797329999,0.0,0.0,-0.013089969390000001,0.0,0.0,0.0
303,0.0,0.0,0.616417627574,0.787419398044,0.0,0.0,-0.009599310885969999,0.0,0.0,0.0
304,0.0,0.0,0.616417627574,0.787419398044,0.0,0.0,0.00279252680319,0.0,0.0,0.0
305,0.0,0.0,0.616417627574,0.787419398044,0.0,0.0,-0.009075712110370001,0.0,0.0,0.0
306,0.0,0.0,0.616486340532,0.7873656024600001,0.0,0.0,-0.009075712110370001,0.0,0.0,0.0
307,0.0,0.0,0.616348909921,0.787473187632,0.0,0.0,-0.0193731546971,0.0,0.0,0.0
308,0.0,0.0,0.616211460536,0.7875807488150001,0.0,0.0,-0.007853981633970001,0.0,0.0,0.0
309,0.0,0.0,0.612148277021,0.790742996769,0.0,0.0,-0.378038315982,0.0,0.0,0.0
310,0.0,0.0,0.6092459473740001,0.7929813210969999,0.0,0.0,-0.388684824419,0.0,0.0,0.0
311,0.0,0.0,0.601815023152,0.7986355100470001,0.0,0.0,-0.24050637092500002,0.0,0.0,0.0
312,0.0,0.0,0.596855222381,0.8023489537080001,0.0,0.0,-0.20734511513700002,0.0,0.0,0.0
313,0.0,0.0,0.590042159163,0.807372435998,0.0,0.0,-0.284139602225,0.0,0.0,0.0
314,0.0,0.0,0.583541211356,0.812083526892,0.0,0.0,-0.448549617763,0.0,0.0,0.0
315,0.0,0.0,0.5671970801899999,0.823582098047,0.0,0.0,-0.6094689747959999,0.0,0.0,0.0
316,0.0,0.0,0.553391549243,0.8329212407100001,0.0,0.0,-0.574387856831,0.0,0.0,0.0
317,0.0,0.0,0.538550213024,0.842593417997,0.0,0.0,-0.5283111645790001,0.0,0.0,0.0
318,0.0,0.0,0.526807453214,0.8499846511779999,0.0,0.0,-0.49026298688500003,0.0,0.0,0.0
319,0.0,0.0,0.5141401691749999,0.85770617722,0.0,0.0,-0.465653844432,0.0,0.0,0.0
320,0.0,0.0,0.501510737159,0.8651514205700002,0.0,0.0,-0.577878515335,0.0,0.0,0.0
321,0.0,0.0,0.484885943368,0.874577396189,0.0,0.0,-0.601964059013,0.0,0.0,0.0
322,0.0,0.0,0.470703932165,0.882291226435,0.0,0.0,-0.56426494717,0.0,0.0,0.0
323,0.0,0.0,0.463914608979,0.885879921646,0.0,0.0,-0.549255115603,0.0,0.0,0.0
324,0.0,0.0,0.450955431779,0.892546468565,0.0,0.0,-0.48991392103500003,0.0,0.0,0.0
325,0.0,0.0,0.437508164602,0.899214438222,0.0,0.0,-0.47717301749499996,0.0,0.0,0.0
326,0.0,0.0,0.433344522957,0.901228341999,0.0,0.0,-0.513475865937,0.0,0.0,0.0
327,0.0,0.0,0.418976713794,0.9079969786830001,0.0,0.0,-0.605454717517,0.0,0.0,0.0
328,0.0,0.0,0.40170804297799995,0.9157677916410001,0.0,0.0,-0.5640904142450001,0.0,0.0,0.0
329,0.0,0.0,0.39706779992299995,0.9177892798810001,0.0,0.0,-0.544717259547,0.0,0.0,0.0
330,0.0,0.0,0.381231734269,0.924479510204,0.0,0.0,-0.510159740358,0.0,0.0,0.0
331,0.0,0.0,0.37695184091300005,0.9262328592919999,0.0,0.0,-0.48991392103500003,0.0,0.0,0.0
332,0.0,0.0,0.364145422348,0.9313421022280001,0.0,0.0,-0.513301333012,0.0,0.0,0.0
333,0.0,0.0,0.359671123975,0.933079140576,0.0,0.0,-0.5265658353270001,0.0,0.0,0.0
334,0.0,0.0,0.342184145417,0.9396329126980001,0.0,0.0,-0.6007423285360001,0.0,0.0,0.0
335,0.0,0.0,0.33693093568099997,0.9415293646940001,0.0,0.0,-0.604058454115,0.0,0.0,0.0
336,0.0,0.0,0.318711173181,0.947851880881,0.0,0.0,-0.586256095745,0.0,0.0,0.0
337,0.0,0.0,0.30394992437,0.952688009516,0.0,0.0,-0.545240858323,0.0,0.0,0.0
338,0.0,0.0,0.29920733405600003,0.954188121518,0.0,0.0,-0.527613032878,0.0,0.0,0.0
339,0.0,0.0,0.284517342588,0.958670893355,0.0,0.0,-0.462512251778,0.0,0.0,0.0
340,0.0,0.0,0.280247888154,0.959927664559,0.0,0.0,-0.47909287967200004,0.0,0.0,0.0
341,0.0,0.0,0.265556117487,0.964095404234,0.0,0.0,-0.5907939518,0.0,0.0,0.0
342,0.0,0.0,0.246491603437,0.969144926951,0.0,0.0,-0.6024876577880001,0.0,0.0,0.0
343,0.0,0.0,0.23047434466400002,0.973078402007,0.0,0.0,-0.571769862953,0.0,0.0,0.0
344,0.0,0.0,0.21251877723,0.977156982948,0.0,0.0,-0.549255115603,0.0,0.0,0.0
345,0.0,0.0,0.19868376938700003,0.9800636508830001,0.0,0.0,-0.47874381382200004,0.0,0.0,0.0
346,0.0,0.0,0.18257873509300002,0.9831912354629999,0.0,0.0,-0.5324999547829999,0.0,0.0,0.0
347,0.0,0.0,0.167198952759,0.98592317662,0.0,0.0,-0.5799729104379999,0.0,0.0,0.0
348,0.0,0.0,0.14832723834,0.988938334967,0.0,0.0,-0.600916861462,0.0,0.0,0.0
349,0.0,0.0,0.131910382711,0.991261646052,0.0,0.0,-0.587477826221,0.0,0.0,0.0
350,0.0,0.0,0.12403445145,0.992277912106,0.0,0.0,-0.551349510705,0.0,0.0,0.0
351,0.0,0.0,0.110254732764,0.9939033624570001,0.0,0.0,-0.460243323751,0.0,0.0,0.0
352,0.0,0.0,0.09454270020099999,0.995520807336,0.0,0.0,-0.519584518319,0.0,0.0,0.0
353,0.0,0.0,0.08958964299000001,0.9959787627600001,0.0,0.0,-0.553443905807,0.0,0.0,0.0
354,0.0,0.0,0.0729770983012,0.997333616762,0.0,0.0,-0.598124334658,0.0,0.0,0.0
355,0.0,0.0,0.0647064764011,0.997904340061,0.0,0.0,-0.6051056516659999,0.0,0.0,0.0
356,0.0,0.0,0.047629461744,0.998865073158,0.0,0.0,-0.604931118741,0.0,0.0,0.0
357,0.0,0.0,0.042224410831199995,0.9991081518680001,0.0,0.0,-0.576307719009,0.0,0.0,0.0
358,0.0,0.0,0.024693898550400002,0.9996950591930001,0.0,0.0,-0.5047492196769999,0.0,0.0,0.0
359,0.0,0.0,0.0201571875923,0.999796823254,0.0,0.0,-0.48834312470799995,0.0,0.0,0.0
360,0.0,0.0,0.0061086143906800006,0.9999813422409999,0.0,0.0,-0.535641547437,0.0,0.0,0.0
361,0.0,0.0,-0.012653299407799998,0.999919943803,0.0,0.0,-0.623257075887,0.0,0.0,0.0
362,0.0,0.0,-0.0301896083135,0.999544189894,0.0,0.0,-0.646993553714,0.0,0.0,0.0
363,0.0,0.0,-0.0501571617473,0.998741337447,0.0,0.0,-0.592713813977,0.0,0.0,0.0
364,0.0,0.0,-0.0654031292301,0.9978589232389999,0.0,0.0,-0.528834763354,0.0,0.0,0.0
365,0.0,0.0,-0.0816775867673,0.9966588041150001,0.0,0.0,-0.495673507566,0.0,0.0,0.0
366,0.0,0.0,-0.0961932054944,0.9953626812459999,0.0,0.0,-0.5576326960119999,0.0,0.0,0.0
367,0.0,0.0,-0.11580398789100001,0.9932720857790001,0.0,0.0,-0.6215117466350001,0.0,0.0,0.0
368,0.0,0.0,-0.13156435909199998,0.9913076310700001,0.0,0.0,-0.443837228782,0.0,0.0,0.0
369,0.0,0.0,-0.138913844619,0.9903044702380001,0.0,0.0,-0.16807520696699998,0.0,0.0,0.0
370,0.0,0.0,-0.143665346556,0.9896263275589999,0.0,0.0,-0.23230332344000001,0.0,0.0,0.0
371,0.0,0.0,-0.152899596507,0.9882417282160001,0.0,0.0,-0.15742869853,0.0,0.0,0.0
372,0.0,0.0,-0.151864628541,0.988401302406,0.0,0.0,-0.005410520681180001,0.0,0.0,0.0
373,0.0,0.0,-0.152554625759,0.988295040036,0.0,0.0,-0.0537561409614,0.0,0.0,0.0
374,0.0,0.0,-0.153589482068,0.9881347433409999,0.0,0.0,-0.069115038379,0.0,0.0,0.0
375,0.0,0.0,-0.154279292772,0.9880272768610001,0.0,0.0,0.0186750229963,0.0,0.0,0.0
376,0.0,0.0,-0.154020622552,0.9880676332260001,0.0,0.0,0.0277507351067,0.0,0.0,0.0
377,0.0,0.0,-0.154020622552,0.9880676332260001,0.0,0.0,-0.0171042266695,0.0,0.0,0.0
378,0.0,0.0,-0.15522765964500002,0.987878724177,0.0,0.0,-0.0724311639578,0.0,0.0,0.0
379,0.0,0.0,-0.155831091417,0.9877837166850001,0.0,0.0,-0.0523598775598,0.0,0.0,0.0
380,0.0,0.0,-0.155831091417,0.9877837166850001,0.0,0.0,0.00820304748437,0.0,0.0,0.0
381,0.0,0.0,-0.156003489824,0.987756503984,0.0,0.0,-0.005410520681180001,0.0,0.0,0.0
382,0.0,0.0,-0.156089687246,0.9877428863500001,0.0,0.0,-0.014311699866400001,0.0,0.0,0.0
383,0.0,0.0,-0.157123963403,0.9875788880509999,0.0,0.0,-0.017278759594700002,0.0,0.0,0.0
384,0.0,0.0,-0.157210145321,0.9875651726379999,0.0,0.0,-0.0020943951023900003,0.0,0.0,0.0
385,0.0,0.0,-0.157468683888,0.9875239812759999,0.0,0.0,-0.0300196631343,0.0,0.0,0.0
386,0.0,0.0,-0.158244234762,0.9874000010959999,0.0,0.0,-0.015533430342700001,0.0,0.0,0.0
387,0.0,0.0,-0.158675054211,0.987330860032,0.0,0.0,0.00261799387799,0.0,0.0,0.0
388,0.0,0.0,-0.15884737353700001,0.9873031509729999,0.0,0.0,-0.034906585039900004,0.0,0.0,0.0
389,0.0,0.0,-0.159708897478,0.987164154569,0.0,0.0,-0.014660765716799999,0.0,0.0,0.0
390,0.0,0.0,-0.160742565604,0.98699636656,0.0,0.0,-0.026529004630299998,0.0,0.0,0.0
391,0.0,0.0,-0.160742565604,0.98699636656,0.0,0.0,-0.014660765716799999,0.0,0.0,0.0
392,0.0,0.0,-0.161431579828,0.9868839065639999,0.0,0.0,-0.000872664625997,0.0,0.0,0.0
393,0.0,0.0,-0.162120515372,0.986770965572,0.0,0.0,-0.044680428851100004,0.0,0.0,0.0
394,0.0,0.0,-0.16263716519500002,0.986685944208,0.0,0.0,-0.0251327412287,0.0,0.0,0.0
395,0.0,0.0,-0.16358424063,0.986529369161,0.0,0.0,-0.010471975512,0.0,0.0,0.0
396,0.0,0.0,-0.163412056282,0.9865579049709999,0.0,0.0,0.0101229096616,0.0,0.0,0.0
397,0.0,0.0,-0.16435900845100002,0.986400586142,0.0,0.0,-0.041713369122699996,0.0,0.0,0.0
398,0.0,0.0,-0.164961535577,0.9863000009020001,0.0,0.0,-0.0354301838155,0.0,0.0,0.0
399,0.0,0.0,-0.16521974265699998,0.986256780274,0.0,0.0,-0.029496064358700003,0.0,0.0,0.0
400,0.0,0.0,-0.165305809168,0.9862423583759999,0.0,0.0,-0.0134390352404,0.0,0.0,0.0
401,0.0,0.0,-0.16599429588300002,0.986126712818,0.0,0.0,-0.009599310885969999,0.0,0.0,0.0
402,0.0,0.0,-0.166166404934,0.986097726329,0.0,0.0,-0.013788101090799998,0.0,0.0,0.0
403,0.0,0.0,-0.167026874157,0.985952343326,0.0,0.0,-0.014835298642,0.0,0.0,0.0
404,0.0,0.0,-0.16745706111,0.98587937025,0.0,0.0,-0.0476474885794,0.0,0.0,0.0
405,0.0,0.0,-0.167973243363,0.9857915548,0.0,0.0,-0.055152404363,0.0,0.0,0.0
406,0.0,0.0,-0.168833444713,0.9856445951489999,0.0,0.0,-0.010646508437200001,0.0,0.0,0.0
407,0.0,0.0,-0.16891945778700002,0.9856298578980001,0.0,0.0,-0.00488692190558,0.0,0.0,0.0
408,0.0,0.0,-0.169177489289,0.985585601111,0.0,0.0,-0.0109955742876,0.0,0.0,0.0
409,0.0,0.0,-0.16977951766899999,0.985482072582,0.0,0.0,-0.03473205211469999,0.0,0.0,0.0
410,0.0,0.0,-0.16986551655699997,0.985467252771,0.0,0.0,0.000349065850399,0.0,0.0,0.0
411,0.0,0.0,-0.17012350545699997,0.985422748312,0.0,0.0,0.000872664625997,0.0,0.0,0.0
412,0.0,0.0,-0.17089740212299998,0.985288829708,0.0,0.0,-0.062308254296199996,0.0,0.0,0.0
413,0.0,0.0,-0.172444878725,0.9850191692560001,0.0,0.0,-0.004363323129989999,0.0,0.0,0.0
414,0.0,0.0,-0.172616794375,0.984989056944,0.0,0.0,-0.0216420827247,0.0,0.0,0.0
415,0.0,0.0,-0.172788704766,0.984958914628,0.0,0.0,-0.030892327760299997,0.0,0.0,0.0
416,0.0,0.0,-0.173991929836,0.984747078367,0.0,0.0,-0.00942477796077,0.0,0.0,0.0
417,0.0,0.0,-0.17442159022999998,0.984671066327,0.0,0.0,-0.041713369122699996,0.0,0.0,0.0
418,0.0,0.0,-0.174679370533,0.9846253691179999,0.0,0.0,0.000872664625997,0.0,0.0,0.0
419,0.0,0.0,-0.175194895202,0.984533772247,0.0,0.0,-0.0607374579694,0.0,0.0,0.0
420,0.0,0.0,-0.17588218668900002,0.984411223222,0.0,0.0,-0.068242373753,0.0,0.0,0.0
421,0.0,0.0,-0.176397599067,0.984318996588,0.0,0.0,-0.004363323129989999,0.0,0.0,0.0
422,0.0,0.0,-0.17682707244600002,0.984241934917,0.0,0.0,-0.027052603405900003,0.0,0.0,0.0
423,0.0,0.0,-0.176998852376,0.984211057781,0.0,0.0,-0.00680678408278,0.0,0.0,0.0
424,0.0,0.0,-0.177685918127,0.9840872494339999,0.0,0.0,-0.05654866776459999,0.0,0.0,0.0
425,0.0,0.0,-0.178115290264,0.984009625651,0.0,0.0,0.00174532925199,0.0,0.0,0.0
426,0.0,0.0,-0.178115290264,0.984009625651,0.0,0.0,-0.009075712110370001,0.0,0.0,0.0
427,0.0,0.0,-0.178287029629,0.983978523681,0.0,0.0,0.009599310885969999,0.0,0.0,0.0
428,0.0,0.0,-0.178372897275,0.983962961456,0.0,0.0,-0.0202458193231,0.0,0.0,0.0
429,0.0,0.0,-0.179489052822,0.983759970682,0.0,0.0,-0.010471975512,0.0,0.0,0.0
430,0.0,0.0,-0.179489052822,0.983759970682,0.0,0.0,0.00366519142919,0.0,0.0,0.0
431,0.0,0.0,-0.179660748593,0.9837286289499999,0.0,0.0,-0.006981317007979999,0.0,0.0,0.0
432,0.0,0.0,-0.179660748593,0.9837286289499999,0.0,0.0,0.00994837673637,0.0,0.0,0.0
433,0.0,0.0,-0.180604977366,0.9835557138009999,0.0,0.0,-0.0588175957922,0.0,0.0,0.0
434,0.0,0.0,-0.18077663747,0.983524177306,0.0,0.0,-0.004014257279590001,0.0,0.0,0.0
435,0.0,0.0,-0.181463222767,0.983397731736,0.0,0.0,-0.00226892802759,0.0,0.0,0.0
436,0.0,0.0,-0.181978103717,0.9833025830169999,0.0,0.0,-0.0354301838155,0.0,0.0,0.0
437,0.0,0.0,-0.18223552549199998,0.983254907564,0.0,0.0,-0.006632251157579999,0.0,0.0,0.0
438,0.0,0.0,-0.182664534019,0.9831752987190001,0.0,0.0,-0.00977384381117,0.0,0.0,0.0
439,0.0,0.0,-0.18283612769699997,0.9831434027689999,0.0,0.0,-0.014660765716799999,0.0,0.0,0.0
440,0.0,0.0,-0.183007715805,0.983111476871,0.0,0.0,0.00558505360638,0.0,0.0,0.0
441,0.0,0.0,-0.183608230249,0.9829995003990001,0.0,0.0,-0.022863813201099998,0.0,0.0,0.0
442,0.0,0.0,-0.184037127203,0.982919292623,0.0,0.0,-0.0321140582367,0.0,0.0,0.0
443,0.0,0.0,-0.18566661538600002,0.982612796544,0.0,0.0,-0.0738274273594,0.0,0.0,0.0
444,0.0,0.0,-0.18652403600900003,0.982450397726,0.0,0.0,0.0322885911619,0.0,0.0,0.0
445,0.0,0.0,-0.187809900403,0.982205396702,0.0,0.0,-0.0710349005562,0.0,0.0,0.0
446,0.0,0.0,-0.188152743316,0.982139778841,0.0,0.0,-0.026005405854700004,0.0,0.0,0.0
447,0.0,0.0,-0.188581264713,0.98205758823,0.0,0.0,-0.0202458193231,0.0,0.0,0.0
448,0.0,0.0,-0.188409860458,0.9820904869120001,0.0,0.0,-0.0249582083035,0.0,0.0,0.0
449,0.0,0.0,-0.188752663223,0.982024659632,0.0,0.0,-0.0452040276267,0.0,0.0,0.0
450,0.0,0.0,-0.18960956942499999,0.981859567954,0.0,0.0,-0.0204203522483,0.0,0.0,0.0
451,0.0,0.0,-0.19012364387800001,0.981760154029,0.0,0.0,-0.044505895925900006,0.0,0.0,0.0
452,0.0,0.0,-0.191151636272,0.981560518741,0.0,0.0,-0.000698131700798,0.0,0.0,0.0
453,0.0,0.0,-0.190980318733,0.981593866045,0.0,0.0,0.0179768912955,0.0,0.0,0.0
454,0.0,0.0,-0.19149425387699998,0.9814937344329999,0.0,0.0,-0.013788101090799998,0.0,0.0,0.0
455,0.0,0.0,-0.19149425387699998,0.9814937344329999,0.0,0.0,-0.00296705972839,0.0,0.0,0.0
456,0.0,0.0,-0.192436331853,0.981309460967,0.0,0.0,-0.0202458193231,0.0,0.0,0.0
457,0.0,0.0,-0.192436331853,0.981309460967,0.0,0.0,-0.014835298642,0.0,0.0,0.0
458,0.0,0.0,-0.192693231472,0.981259047624,0.0,0.0,-0.028274333882299996,0.0,0.0,0.0
459,0.0,0.0,-0.193121368145,0.9811748759350001,0.0,0.0,-0.0162315620435,0.0,0.0,0.0
460,0.0,0.0,-0.193378232506,0.981124283255,0.0,0.0,-0.035604716740699996,0.0,0.0,0.0
461,0.0,0.0,-0.193806310312,0.98103981269,0.0,0.0,0.0127409035396,0.0,0.0,0.0
462,0.0,0.0,-0.194405557233,0.980921240119,0.0,0.0,-0.028448866807499997,0.0,0.0,0.0
463,0.0,0.0,-0.19457675732500002,0.980887295008,0.0,0.0,-0.0219911485751,0.0,0.0,0.0
464,0.0,0.0,-0.195175910935,0.980768251826,0.0,0.0,0.0034906585039899997,0.0,0.0,0.0
465,0.0,0.0,-0.19551825174100002,0.980700062831,0.0,0.0,-0.0287979326579,0.0,0.0,0.0
466,0.0,0.0,-0.195946144243,0.980614658547,0.0,0.0,-0.0116937059884,0.0,0.0,0.0
467,0.0,0.0,-0.196373999438,0.980529067567,0.0,0.0,-0.00366519142919,0.0,0.0,0.0
468,0.0,0.0,-0.196801817247,0.980443289909,0.0,0.0,-0.004014257279590001,0.0,0.0,0.0
469,0.0,0.0,-0.196972933884,0.9804089265799999,0.0,0.0,-0.00680678408278,0.0,0.0,0.0
470,0.0,0.0,-0.197400699215,0.980322887598,0.0,0.0,-0.044680428851100004,0.0,0.0,0.0
471,0.0,0.0,-0.19851271298599998,0.9800983128149999,0.0,0.0,-0.0164060949687,0.0,0.0,0.0
472,0.0,0.0,-0.198427182518,0.9801156325849999,0.0,0.0,0.005410520681180001,0.0,0.0,0.0
473,0.0,0.0,-0.198427182518,0.9801156325849999,0.0,0.0,-0.000349065850399,0.0,0.0,0.0
474,0.0,0.0,-0.19817058204799998,0.9801675471119999,0.0,0.0,0.00244346095279,0.0,0.0,0.0
475,0.0,0.0,-0.19902586402800002,0.979994237457,0.0,0.0,-0.00296705972839,0.0,0.0,0.0
476,0.0,0.0,-0.19902586402800002,0.979994237457,0.0,0.0,-0.00261799387799,0.0,0.0,0.0
477,0.0,0.0,-0.19902586402800002,0.979994237457,0.0,0.0,0.004014257279590001,0.0,0.0,0.0
478,0.0,0.0,-0.19902586402800002,0.979994237457,0.0,0.0,0.000174532925199,0.0,0.0,0.0
479,0.0,0.0,-0.19945344822099997,0.979907302755,0.0,0.0,-0.0216420827247,0.0,0.0,0.0
480,0.0,0.0,-0.19953896050500003,0.9798898934270001,0.0,0.0,-0.00628318530718,0.0,0.0,0.0
481,0.0,0.0,-0.19988099444000001,0.979820181493,0.0,0.0,-0.0219911485751,0.0,0.0,0.0
482,0.0,0.0,-0.19996649912,0.9798027348549999,0.0,0.0,-0.0034906585039899997,0.0,0.0,0.0
483,0.0,0.0,-0.200564989205,0.9796803994700001,0.0,0.0,-0.0268780704807,0.0,0.0,0.0
484,0.0,0.0,-0.20065048168400001,0.979662893142,0.0,0.0,-0.0050614548307799994,0.0,0.0,0.0
485,0.0,0.0,-0.200735972635,0.979645379354,0.0,0.0,-0.009250245035569999,0.0,0.0,0.0
486,0.0,0.0,-0.200992436314,0.979592793228,0.0,0.0,-0.00523598775598,0.0,0.0,0.0
487,0.0,0.0,-0.20107792114599998,0.9795752495990001,0.0,0.0,-0.0109955742876,0.0,0.0,0.0
488,0.0,0.0,-0.201419845156,0.979505000486,0.0,0.0,-0.00837758040957,0.0,0.0,0.0
489,0.0,0.0,-0.201847215651,0.97941702126,0.0,0.0,-0.0150098315672,0.0,0.0,0.0
490,0.0,0.0,-0.201847215651,0.97941702126,0.0,0.0,0.00733038285838,0.0,0.0,0.0
491,0.0,0.0,-0.20210361950800002,0.9793641442190001,0.0,0.0,-0.021118483949099997,0.0,0.0,0.0
492,0.0,0.0,-0.202616385647,0.979258188767,0.0,0.0,-0.0033161255787899995,0.0,0.0,0.0
493,0.0,0.0,-0.202872747895,0.9792051103630001,0.0,0.0,-0.00488692190558,0.0,0.0,0.0
494,0.0,0.0,-0.203214542593,0.97913423476,0.0,0.0,-0.0322885911619,0.0,0.0,0.0
495,0.0,0.0,-0.2037271882,0.9790276976610001,0.0,0.0,0.0005235987755980001,0.0,0.0,0.0
496,0.0,0.0,-0.204154350213,0.9789387117120001,0.0,0.0,-0.0204203522483,0.0,0.0,0.0
497,0.0,0.0,-0.20466689331500001,0.978831682559,0.0,0.0,-0.0254818070791,0.0,0.0,0.0
498,0.0,0.0,-0.20517938030699998,0.978724385053,0.0,0.0,-0.00157079632679,0.0,0.0,0.0
499,0.0,0.0,-0.20500855755300001,0.978760180703,0.0,0.0,0.00977384381117,0.0,0.0,0.0
500,0.0,0.0,-0.20543560271699998,0.978670635677,0.0,0.0,-0.011868238913600001,0.0,0.0,0.0
501,0.0,0.0,-0.206118793594,0.978526976086,0.0,0.0,-0.053407075111,0.0,0.0,0.0
502,0.0,0.0,-0.206631120843,0.978418918408,0.0,0.0,-0.047996554429800005,0.0,0.0,0.0
503,0.0,0.0,-0.206631120843,0.978418918408,0.0,0.0,0.00453785605519,0.0,0.0,0.0
504,0.0,0.0,-0.20654573689800002,0.97843694665,0.0,0.0,0.0169296937443,0.0,0.0,0.0
505,0.0,0.0,-0.206631120843,0.978418918408,0.0,0.0,-0.020071286397900002,0.0,0.0,0.0
506,0.0,0.0,-0.208338468418,0.978056789035,0.0,0.0,-0.020071286397900002,0.0,0.0,0.0
507,0.0,0.0,-0.208253116068,0.9780749662720001,0.0,0.0,0.014835298642,0.0,0.0,0.0
508,0.0,0.0,-0.208679861943,0.977984005605,0.0,0.0,-0.022863813201099998,0.0,0.0,0.0
509,0.0,0.0,-0.208679861943,0.977984005605,0.0,0.0,-0.0321140582367,0.0,0.0,0.0
510,0.0,0.0,-0.20919190454199998,0.97787460703,0.0,0.0,-0.05270894341019999,0.0,0.0,0.0
511,0.0,0.0,-0.209618562904,0.9777832367589999,0.0,0.0,-0.0012217304764,0.0,0.0,0.0
512,0.0,0.0,-0.210215817546,0.97765500564,0.0,0.0,-0.0150098315672,0.0,0.0,0.0
513,0.0,0.0,-0.21055707070799998,0.977581566916,0.0,0.0,-0.042236967898300004,0.0,0.0,0.0
514,0.0,0.0,-0.21081299374499998,0.9775264097040001,0.0,0.0,0.0012217304764,0.0,0.0,0.0
515,0.0,0.0,-0.21081299374499998,0.9775264097040001,0.0,0.0,-0.0012217304764,0.0,0.0,0.0
516,0.0,0.0,-0.211495384491,0.9773789962639999,0.0,0.0,-0.0596902604182,0.0,0.0,0.0
517,0.0,0.0,-0.212348227928,0.9771940595890001,0.0,0.0,0.00418879020479,0.0,0.0,0.0
518,0.0,0.0,-0.21209239184700002,0.9772496187369999,0.0,0.0,0.0165806278939,0.0,0.0,0.0
519,0.0,0.0,-0.21200710992199998,0.9772681235680001,0.0,0.0,-0.026005405854700004,0.0,0.0,0.0
520,0.0,0.0,-0.21294512215300002,0.977064161123,0.0,0.0,0.000872664625997,0.0,0.0,0.0
521,0.0,0.0,-0.21328616890500002,0.976989769728,0.0,0.0,-0.00261799387799,0.0,0.0,0.0
522,0.0,0.0,-0.213030386275,0.977045574435,0.0,0.0,0.0171042266695,0.0,0.0,0.0
523,0.0,0.0,-0.213200909652,0.977008378738,0.0,0.0,-0.023387411976700002,0.0,0.0,0.0
524,0.0,0.0,-0.213797690292,0.9768779594329999,0.0,0.0,-0.00610865238198,0.0,0.0,0.0
525,0.0,0.0,-0.213882938162,0.976859298345,0.0,0.0,-0.00855211333477,0.0,0.0,0.0
526,0.0,0.0,-0.21413867199499997,0.976803270447,0.0,0.0,-0.0169296937443,0.0,0.0,0.0
527,0.0,0.0,-0.214394391152,0.9767471756,0.0,0.0,-0.0239110107523,0.0,0.0,0.0
528,0.0,0.0,-0.214735327167,0.9766722783339999,0.0,0.0,0.00994837673637,0.0,0.0,0.0
529,0.0,0.0,-0.215076237017,0.9765972620640001,0.0,0.0,-0.0116937059884,0.0,0.0,0.0
530,0.0,0.0,-0.21499101200999998,0.976616027288,0.0,0.0,0.004014257279590001,0.0,0.0,0.0
531,0.0,0.0,-0.21541712066100002,0.976522126798,0.0,0.0,-0.0207694180987,0.0,0.0,0.0
532,0.0,0.0,-0.215502337472,0.97650332439,0.0,0.0,-0.0151843644924,0.0,0.0,0.0
533,0.0,0.0,-0.215843188299,0.9764280403929999,0.0,0.0,-0.00855211333477,0.0,0.0,0.0
534,0.0,0.0,-0.215843188299,0.9764280403929999,0.0,0.0,-0.00279252680319,0.0,0.0,0.0
535,0.0,0.0,-0.216013603853,0.976390353778,0.0,0.0,-0.0050614548307799994,0.0,0.0,0.0
536,0.0,0.0,-0.216269214844,0.976333768089,0.0,0.0,-0.013089969390000001,0.0,0.0,0.0
537,0.0,0.0,-0.21635441521499998,0.976314891322,0.0,0.0,-0.00488692190558,0.0,0.0,0.0
538,0.0,0.0,-0.21643961393800001,0.9762960071200001,0.0,0.0,-0.00593411945678,0.0,0.0,0.0
539,0.0,0.0,-0.21643961393800001,0.9762960071200001,0.0,0.0,0.00261799387799,0.0,0.0,0.0
540,0.0,0.0,-0.216610006439,0.9762582164110001,0.0,0.0,-0.0127409035396,0.0,0.0,0.0
541,0.0,0.0,-0.21712114433000002,0.976144665859,0.0,0.0,-0.00558505360638,0.0,0.0,0.0
542,0.0,0.0,-0.217291510406,0.9761067562029999,0.0,0.0,-0.0151843644924,0.0,0.0,0.0
543,0.0,0.0,-0.217802568899,0.975992848837,0.0,0.0,-0.0165806278939,0.0,0.0,0.0
544,0.0,0.0,-0.21839872832899998,0.975859618728,0.0,0.0,-0.0181514242207,0.0,0.0,0.0
545,0.0,0.0,-0.21856904463500001,0.975821486096,0.0,0.0,-0.00279252680319,0.0,0.0,0.0
546,0.0,0.0,-0.219335385547,0.97564952142,0.0,0.0,-0.0176278254451,0.0,0.0,0.0
547,0.0,0.0,-0.219846204353,0.975534543946,0.0,0.0,-0.029670597283900004,0.0,0.0,0.0
548,0.0,0.0,-0.219675938108,0.975572899489,0.0,0.0,0.0050614548307799994,0.0,0.0,0.0
549,0.0,0.0,-0.220101591162,0.975476954914,0.0,0.0,-0.00680678408278,0.0,0.0,0.0
550,0.0,0.0,-0.22103788026500001,0.975265223151,0.0,0.0,-0.0427605666739,0.0,0.0,0.0
551,0.0,0.0,-0.22103788026500001,0.975265223151,0.0,0.0,0.035081117965099995,0.0,0.0,0.0
552,0.0,0.0,-0.221463398941,0.9751686843459999,0.0,0.0,0.0012217304764,0.0,0.0,0.0
553,0.0,0.0,-0.221378298577,0.9751880069600001,0.0,0.0,0.009599310885969999,0.0,0.0,0.0
554,0.0,0.0,-0.222399391499,0.974955645484,0.0,0.0,-0.0476474885794,0.0,0.0,0.0
555,0.0,0.0,-0.222399391499,0.974955645484,0.0,0.0,-0.0214675497995,0.0,0.0,0.0
556,0.0,0.0,-0.222739701664,0.974877954055,0.0,0.0,-0.0331612557879,0.0,0.0,0.0
557,0.0,0.0,-0.222654626665,0.9748973880490001,0.0,0.0,-0.0012217304764,0.0,0.0,0.0
558,0.0,0.0,-0.223420240532,0.974722214849,0.0,0.0,-0.0019198621771900001,0.0,0.0,0.0
559,0.0,0.0,-0.223250116011,0.974761194191,0.0,0.0,0.0190240888467,0.0,0.0,0.0
560,0.0,0.0,-0.223760469153,0.9746441670909999,0.0,0.0,-0.0314159265359,0.0,0.0,0.0
561,0.0,0.0,-0.22418571658300002,0.9745464403919999,0.0,0.0,-0.0366519142919,0.0,0.0,0.0
562,0.0,0.0,-0.2245258838,0.9744681254430001,0.0,0.0,-0.0371755130675,0.0,0.0,0.0
563,0.0,0.0,-0.224440844558,0.9744877153120001,0.0,0.0,0.0204203522483,0.0,0.0,0.0
564,0.0,0.0,-0.224355803608,0.9745072977600001,0.0,0.0,0.0034906585039899997,0.0,0.0,0.0
565,0.0,0.0,-0.2245258838,0.9744681254430001,0.0,0.0,0.007679448708779999,0.0,0.0,0.0
566,0.0,0.0,-0.225376182061,0.9742718186210001,0.0,0.0,-0.0171042266695,0.0,0.0,0.0
567,0.0,0.0,-0.225206136118,0.974311139346,0.0,0.0,-0.00226892802759,0.0,0.0,0.0
568,0.0,0.0,-0.225376182061,0.9742718186210001,0.0,0.0,0.0034906585039899997,0.0,0.0,0.0
569,0.0,0.0,-0.225886278675,0.974153678383,0.0,0.0,-0.020943951023900002,0.0,0.0,0.0
570,0.0,0.0,-0.225886278675,0.974153678383,0.0,0.0,-0.0225147473507,0.0,0.0,0.0
571,0.0,0.0,-0.22648131311099998,0.9740155105600001,0.0,0.0,-0.007853981633970001,0.0,0.0,0.0
572,0.0,0.0,-0.22665130743700002,0.9739759672789999,0.0,0.0,-0.00628318530718,0.0,0.0,0.0
573,0.0,0.0,-0.226566311137,0.9739957426279999,0.0,0.0,-0.010471975512,0.0,0.0,0.0
574,0.0,0.0,-0.227076263034,0.973876979277,0.0,0.0,-0.000698131700798,0.0,0.0,0.0
575,0.0,0.0,-0.227331215647,0.9738174974770001,0.0,0.0,-0.014660765716799999,0.0,0.0,0.0
576,0.0,0.0,-0.22750117539999998,0.973777805863,0.0,0.0,-0.00314159265359,0.0,0.0,0.0
577,0.0,0.0,-0.22835087011100003,0.9735789028730001,0.0,0.0,-0.014660765716799999,0.0,0.0,0.0
578,0.0,0.0,-0.22835087011100003,0.9735789028730001,0.0,0.0,0.007679448708779999,0.0,0.0,0.0
579,0.0,0.0,-0.228690699339,0.9734991340700001,0.0,0.0,-0.024609142453099996,0.0,0.0,0.0
580,0.0,0.0,-0.228860603507,0.973459205187,0.0,0.0,-0.020943951023900002,0.0,0.0,0.0
581,0.0,0.0,-0.22903050070300002,0.97341924665,0.0,0.0,-0.00680678408278,0.0,0.0,0.0
582,0.0,0.0,-0.229200390922,0.9733792584600001,0.0,0.0,-0.014311699866400001,0.0,0.0,0.0
583,0.0,0.0,-0.22937027415999997,0.973339240621,0.0,0.0,-0.00558505360638,0.0,0.0,0.0
584,0.0,0.0,-0.22971001966899998,0.973259115993,0.0,0.0,-0.0129154364648,0.0,0.0,0.0
585,0.0,0.0,-0.229794951674,0.9732390663060001,0.0,0.0,-0.006632251157579999,0.0,0.0,0.0
586,0.0,0.0,-0.229964810435,0.973198944698,0.0,0.0,-0.0111701072128,0.0,0.0,0.0
587,0.0,0.0,-0.230049737188,0.9731788727770001,0.0,0.0,-0.00855211333477,0.0,0.0,0.0
588,0.0,0.0,-0.23030450693500001,0.973118612547,0.0,0.0,-0.017278759594700002,0.0,0.0,0.0
589,0.0,0.0,-0.230559260896,0.9730582856209999,0.0,0.0,-0.0033161255787899995,0.0,0.0,0.0
590,0.0,0.0,-0.230813999056,0.972997892002,0.0,0.0,-0.0125663706144,0.0,0.0,0.0
591,0.0,0.0,-0.231068721395,0.9729374316949999,0.0,0.0,-0.00994837673637,0.0,0.0,0.0
592,0.0,0.0,-0.23149322342599998,0.972836516331,0.0,0.0,0.00314159265359,0.0,0.0,0.0
593,0.0,0.0,-0.231408326543,0.9728567142219999,0.0,0.0,-0.026529004630299998,0.0,0.0,0.0
594,0.0,0.0,-0.231663011902,0.9727960983249999,0.0,0.0,-0.00418879020479,0.0,0.0,0.0
595,0.0,0.0,-0.232342095187,0.972634129981,0.0,0.0,-0.0020943951023900003,0.0,0.0,0.0
596,0.0,0.0,-0.232342095187,0.972634129981,0.0,0.0,-0.0291469985083,0.0,0.0,0.0
597,0.0,0.0,-0.232342095187,0.972634129981,0.0,0.0,0.00523598775598,0.0,0.0,0.0
598,0.0,0.0,-0.233105928507,0.97245134896,0.0,0.0,0.00523598775598,0.0,0.0,0.0
599,0.0,0.0,-0.23276646475499999,0.972532659033,0.0,0.0,-0.0268780704807,0.0,0.0,0.0
600,0.0,0.0,-0.233190790009,0.972431002928,0.0,0.0,0.00628318530718,0.0,0.0,0.0
601,0.0,0.0,-0.233954463532,0.972247555406,0.0,0.0,-0.035081117965099995,0.0,0.0,0.0
602,0.0,0.0,-0.23361507086599997,0.9723291616859999,0.0,0.0,-0.0171042266695,0.0,0.0,0.0
603,0.0,0.0,-0.233954463532,0.972247555406,0.0,0.0,-0.0385717764691,0.0,0.0,0.0
604,0.0,0.0,-0.233954463532,0.972247555406,0.0,0.0,-0.0101229096616,0.0,0.0,0.0
605,0.0,0.0,-0.234887646252,0.9720225273309999,0.0,0.0,-0.00558505360638,0.0,0.0,0.0
606,0.0,0.0,-0.23480282039099998,0.972043021443,0.0,0.0,0.021118483949099997,0.0,0.0,0.0
607,0.0,0.0,-0.234972470325,0.972002025815,0.0,0.0,-0.027925268031900003,0.0,0.0,0.0
608,0.0,0.0,-0.234972470325,0.972002025815,0.0,0.0,0.0132645023152,0.0,0.0,0.0
609,0.0,0.0,-0.235566188697,0.9718583079559999,0.0,0.0,-0.044680428851100004,0.0,0.0,0.0
610,0.0,0.0,-0.23573580638099997,0.9718171790979999,0.0,0.0,-0.010471975512,0.0,0.0,0.0
611,0.0,0.0,-0.235481377163,0.9718788612829999,0.0,0.0,-0.00855211333477,0.0,0.0,0.0
612,0.0,0.0,-0.23565099843600001,0.971837747227,0.0,0.0,-0.021816615649900003,0.0,0.0,0.0
613,0.0,0.0,-0.235566188697,0.9718583079559999,0.0,0.0,-0.00610865238198,0.0,0.0,0.0
614,0.0,0.0,-0.23632941169399999,0.9716729949770001,0.0,0.0,0.00418879020479,0.0,0.0,0.0
615,0.0,0.0,-0.23632941169399999,0.9716729949770001,0.0,0.0,-0.00558505360638,0.0,0.0,0.0
616,0.0,0.0,-0.236922928819,0.9715284482709999,0.0,0.0,-0.0129154364648,0.0,0.0,0.0
617,0.0,0.0,-0.236922928819,0.9715284482709999,0.0,0.0,0.009250245035569999,0.0,0.0,0.0
618,0.0,0.0,-0.23734681550700001,0.971424978662,0.0,0.0,-0.044505895925900006,0.0,0.0,0.0
619,0.0,0.0,-0.237601125835,0.9713628081219999,0.0,0.0,-0.0249582083035,0.0,0.0,0.0
620,0.0,0.0,-0.238109697619,0.971238267316,0.0,0.0,0.00680678408278,0.0,0.0,0.0
621,0.0,0.0,-0.238618204124,0.9711134602410001,0.0,0.0,-0.0485201532054,0.0,0.0,0.0
622,0.0,0.0,-0.238787691761,0.971071798717,0.0,0.0,0.00453785605519,0.0,0.0,0.0
623,0.0,0.0,-0.239211379021,0.970967515495,0.0,0.0,0.0160570291183,0.0,0.0,0.0
624,0.0,0.0,-0.239719743609,0.9708421316179999,0.0,0.0,-0.0459021593275,0.0,0.0,0.0
625,0.0,0.0,-0.239973901267,0.970779339866,0.0,0.0,0.0,0.0,0.0,0.0
626,0.0,0.0,-0.240397460805,0.970674539091,0.0,0.0,-0.00523598775598,0.0,0.0,0.0
627,0.0,0.0,-0.24065157456300001,0.970611569919,0.0,0.0,-0.035604716740699996,0.0,0.0,0.0
628,0.0,0.0,-0.240820974574,0.970569553512,0.0,0.0,0.011868238913600001,0.0,0.0,0.0
629,0.0,0.0,-0.240905671828,0.9705485342219999,0.0,0.0,-0.021816615649900003,0.0,0.0,0.0
630,0.0,0.0,-0.241413816807,0.970422263272,0.0,0.0,0.00610865238198,0.0,0.0,0.0
631,0.0,0.0,-0.24242990806899997,0.970168923267,0.0,0.0,-0.0366519142919,0.0,0.0,0.0
632,0.0,0.0,-0.24251457035500001,0.970147763573,0.0,0.0,0.00174532925199,0.0,0.0,0.0
633,0.0,0.0,-0.242599230795,0.9701265964899999,0.0,0.0,-0.0134390352404,0.0,0.0,0.0
634,0.0,0.0,-0.242599230795,0.9701265964899999,0.0,0.0,0.000698131700798,0.0,0.0,0.0
635,0.0,0.0,-0.24276854613200002,0.970084240161,0.0,0.0,-0.0333357887131,0.0,0.0,0.0
636,0.0,0.0,-0.24310715461500002,0.969999438853,0.0,0.0,-0.0371755130675,0.0,0.0,0.0
637,0.0,0.0,-0.24319180210900002,0.9699782200579999,0.0,0.0,-0.00715584993318,0.0,0.0,0.0
638,0.0,0.0,-0.243361091541,0.969935760308,0.0,0.0,-0.015358897417600001,0.0,0.0,0.0
639,0.0,0.0,-0.243276447751,0.9699569938760001,0.0,0.0,-0.000349065850399,0.0,0.0,0.0
640,0.0,0.0,-0.244207427396,0.969723018395,0.0,0.0,-0.0335103216383,0.0,0.0,0.0
641,0.0,0.0,-0.244461291916,0.9696590518089999,0.0,0.0,-0.0251327412287,0.0,0.0,0.0
642,0.0,0.0,-0.244630525623,0.969616370496,0.0,0.0,-0.011344640138,0.0,0.0,0.0
643,0.0,0.0,-0.24488436220899998,0.9695522931460001,0.0,0.0,-0.009599310885969999,0.0,0.0,0.0
644,0.0,0.0,-0.24530738587900003,0.969445349895,0.0,0.0,-0.00366519142919,0.0,0.0,0.0
645,0.0,0.0,-0.245053577276,0.9695095379950001,0.0,0.0,0.00453785605519,0.0,0.0,0.0
646,0.0,0.0,-0.24547658227400002,0.9694025209139999,0.0,0.0,-0.0219911485751,0.0,0.0,0.0
647,0.0,0.0,-0.246068710739,0.969252386943,0.0,0.0,0.000872664625997,0.0,0.0,0.0
648,0.0,0.0,-0.245561177668,0.9693810953499999,0.0,0.0,0.039793506945500004,0.0,0.0,0.0
649,0.0,0.0,-0.245561177668,0.9693810953499999,0.0,0.0,-0.0195476876223,0.0,0.0,0.0
650,0.0,0.0,-0.24716813411,0.9689726071879999,0.0,0.0,-0.047298422729,0.0,0.0,0.0
651,0.0,0.0,-0.24742180207199999,0.9689078655159999,0.0,0.0,0.009075712110370001,0.0,0.0,0.0
652,0.0,0.0,-0.24708357435699999,0.9689941729870001,0.0,0.0,0.012042771838799999,0.0,0.0,0.0
653,0.0,0.0,-0.24750635429200002,0.968886270202,0.0,0.0,-0.052534410484999995,0.0,0.0,0.0
654,0.0,0.0,-0.24843630416700002,0.968648234795,0.0,0.0,-0.005410520681180001,0.0,0.0,0.0
655,0.0,0.0,-0.248098167018,0.96873489641,0.0,0.0,-0.006632251157579999,0.0,0.0,0.0
656,0.0,0.0,-0.248182704141,0.968713242072,0.0,0.0,-0.0186750229963,0.0,0.0,0.0
657,0.0,0.0,-0.24843630416700002,0.968648234795,0.0,0.0,-0.0268780704807,0.0,0.0,0.0
658,0.0,0.0,-0.24860536139199998,0.968604859727,0.0,0.0,0.0193731546971,0.0,0.0,0.0
659,0.0,0.0,-0.248858933029,0.968539741803,0.0,0.0,-0.020071286397900002,0.0,0.0,0.0
660,0.0,0.0,-0.24894345311799998,0.968518021076,0.0,0.0,-0.0033161255787899995,0.0,0.0,0.0
661,0.0,0.0,-0.249197002009,0.968452814643,0.0,0.0,-0.012042771838799999,0.0,0.0,0.0
662,0.0,0.0,-0.24911248760899998,0.968474557496,0.0,0.0,0.013089969390000001,0.0,0.0,0.0
663,0.0,0.0,-0.24894345311799998,0.968518021076,0.0,0.0,-0.015533430342700001,0.0,0.0,0.0
664,0.0,0.0,-0.249197002009,0.968452814643,0.0,0.0,-0.0150098315672,0.0,0.0,0.0
665,0.0,0.0,-0.24945053382,0.968387541833,0.0,0.0,-0.0277507351067,0.0,0.0,0.0
666,0.0,0.0,-0.249788549637,0.968300408174,0.0,0.0,0.010471975512,0.0,0.0,0.0
667,0.0,0.0,-0.24987304883699998,0.9682786063240001,0.0,0.0,-0.0162315620435,0.0,0.0,0.0
668,0.0,0.0,-0.249957546134,0.9682567970999999,0.0,0.0,-0.0033161255787899995,0.0,0.0,0.0
669,0.0,0.0,-0.250380004054,0.9681476403779999,0.0,0.0,-0.0242600766027,0.0,0.0,0.0
670,0.0,0.0,-0.250464489921,0.9681257869140001,0.0,0.0,0.008901179185170001,0.0,0.0,0.0
671,0.0,0.0,-0.25054897388,0.9681039260780001,0.0,0.0,0.00488692190558,0.0,0.0,0.0
672,0.0,0.0,-0.25071793607299997,0.968060182288,0.0,0.0,-0.0202458193231,0.0,0.0,0.0
673,0.0,0.0,-0.250802414306,0.9680382993340001,0.0,0.0,0.0038397243543899996,0.0,0.0,0.0
674,0.0,0.0,-0.251309243572,0.967906846807,0.0,0.0,-0.00977384381117,0.0,0.0,0.0
675,0.0,0.0,-0.25156263237599996,0.967841021032,0.0,0.0,-0.0254818070791,0.0,0.0,0.0
676,0.0,0.0,-0.251309243572,0.967906846807,0.0,0.0,0.0237364778271,0.0,0.0,0.0
677,0.0,0.0,-0.251816003939,0.9677751289219999,0.0,0.0,-0.00488692190558,0.0,0.0,0.0
678,0.0,0.0,-0.252069358243,0.967709170482,0.0,0.0,-0.0383972435439,0.0,0.0,0.0
679,0.0,0.0,-0.251731548668,0.967797100329,0.0,0.0,0.0359537825911,0.0,0.0,0.0
680,0.0,0.0,-0.251731548668,0.967797100329,0.0,0.0,-0.00226892802759,0.0,0.0,0.0
681,0.0,0.0,-0.252153805839,0.967687169596,0.0,0.0,0.00366519142919,0.0,0.0,0.0
682,0.0,0.0,-0.252238251515,0.967665161341,0.0,0.0,-0.0202458193231,0.0,0.0,0.0
683,0.0,0.0,-0.253082602519,0.9674446735100001,0.0,0.0,0.010821041362399999,0.0,0.0,0.0
684,0.0,0.0,-0.253082602519,0.9674446735100001,0.0,0.0,-0.046076692252699995,0.0,0.0,0.0
685,0.0,0.0,-0.25316702703,0.967422584202,0.0,0.0,0.010821041362399999,0.0,0.0,0.0
686,0.0,0.0,-0.25367353358399997,0.9672898936509999,0.0,0.0,0.0169296937443,0.0,0.0,0.0
687,0.0,0.0,-0.253420288991,0.967356272077,0.0,0.0,0.0242600766027,0.0,0.0,0.0
688,0.0,0.0,-0.254095569259,0.967179115616,0.0,0.0,-0.042411500823499995,0.0,0.0,0.0
689,0.0,0.0,-0.254433162972,0.967090360608,0.0,0.0,-0.0317649923863,0.0,0.0,0.0
690,0.0,0.0,-0.254686337914,0.9670237170200001,0.0,0.0,-0.0242600766027,0.0,0.0,0.0
691,0.0,0.0,-0.254095569259,0.967179115616,0.0,0.0,0.0286233997327,0.0,0.0,0.0
692,0.0,0.0,-0.254686337914,0.9670237170200001,0.0,0.0,-0.00366519142919,0.0,0.0,0.0
693,0.0,0.0,-0.255277011532,0.966867957574,0.0,0.0,-0.0401425727959,0.0,0.0,0.0
694,0.0,0.0,-0.254686337914,0.9670237170200001,0.0,0.0,0.0403171057211,0.0,0.0,0.0
695,0.0,0.0,-0.254855111512,0.9669792511399999,0.0,0.0,-0.0019198621771900001,0.0,0.0,0.0
696,0.0,0.0,-0.255361385706,0.966845676771,0.0,0.0,-0.0556760031386,0.0,0.0,0.0
697,0.0,0.0,-0.255614496558,0.966778790184,0.0,0.0,0.015358897417600001,0.0,0.0,0.0
698,0.0,0.0,-0.255614496558,0.966778790184,0.0,0.0,0.0109955742876,0.0,0.0,0.0
699,0.0,0.0,-0.25578322739500003,0.9667341623129999,0.0,0.0,-0.0291469985083,0.0,0.0,0.0
700,0.0,0.0,-0.25578322739500003,0.9667341623129999,0.0,0.0,0.0127409035396,0.0,0.0,0.0
701,0.0,0.0,-0.256458072772,0.966555356361,0.0,0.0,-0.0116937059884,0.0,0.0,0.0
702,0.0,0.0,-0.256458072772,0.966555356361,0.0,0.0,-0.014835298642,0.0,0.0,0.0
703,0.0,0.0,-0.256205020386,0.966622463803,0.0,0.0,0.0162315620435,0.0,0.0,0.0
704,0.0,0.0,-0.25687978768,0.9664433634110001,0.0,0.0,-0.00872664625997,0.0,0.0,0.0
705,0.0,0.0,-0.257217124397,0.9663536365719999,0.0,0.0,0.0127409035396,0.0,0.0,0.0
706,0.0,0.0,-0.257385781006,0.966308728997,0.0,0.0,-0.036128315516300004,0.0,0.0,0.0
707,0.0,0.0,-0.257554429774,0.966263791986,0.0,0.0,0.00366519142919,0.0,0.0,0.0
708,0.0,0.0,-0.257807388214,0.966196331282,0.0,0.0,-0.035604716740699996,0.0,0.0,0.0
709,0.0,0.0,-0.257976017359,0.966151320688,0.0,0.0,0.000698131700798,0.0,0.0,0.0
710,0.0,0.0,-0.258060328984,0.9661288043549999,0.0,0.0,-0.015358897417600001,0.0,0.0,0.0
711,0.0,0.0,-0.258228946339,0.9660837496160001,0.0,0.0,0.0164060949687,0.0,0.0,0.0
712,0.0,0.0,-0.258060328984,0.9661288043549999,0.0,0.0,0.0109955742876,0.0,0.0,0.0
713,0.0,0.0,-0.258734751187,0.9659484088339999,0.0,0.0,0.00715584993318,0.0,0.0,0.0
714,0.0,0.0,-0.25856615744600003,0.9659935518539999,0.0,0.0,0.010471975512,0.0,0.0,0.0
715,0.0,0.0,-0.258650455301,0.965970984022,0.0,0.0,-0.014835298642,0.0,0.0,0.0
716,0.0,0.0,-0.259156201047,0.965835422553,0.0,0.0,-0.00733038285838,0.0,0.0,0.0
717,0.0,0.0,-0.259240485101,0.965812803231,0.0,0.0,-0.0225147473507,0.0,0.0,0.0
718,0.0,0.0,-0.259409047286,0.965767542521,0.0,0.0,-0.0242600766027,0.0,0.0,0.0
719,0.0,0.0,-0.259156201047,0.965835422553,0.0,0.0,-0.0129154364648,0.0,0.0,0.0
720,0.0,0.0,-0.259493325415,0.9657449011329999,0.0,0.0,-0.0401425727959,0.0,0.0,0.0
721,0.0,0.0,-0.25999895266899997,0.9656088983700001,0.0,0.0,-0.0038397243543899996,0.0,0.0,0.0
722,0.0,0.0,-0.260588761032,0.9654498938959999,0.0,0.0,0.0134390352404,0.0,0.0,0.0
723,0.0,0.0,-0.260335997913,0.965518082788,0.0,0.0,0.0195476876223,0.0,0.0,0.0
724,0.0,0.0,-0.260335997913,0.965518082788,0.0,0.0,-0.012217304764,0.0,0.0,0.0
725,0.0,0.0,-0.260588761032,0.9654498938959999,0.0,0.0,-0.0116937059884,0.0,0.0,0.0
726,0.0,0.0,-0.26109423367,0.965313317604,0.0,0.0,-0.005410520681180001,0.0,0.0,0.0
727,0.0,0.0,-0.260925750737,0.965358872442,0.0,0.0,0.0010471975512,0.0,0.0,0.0
728,0.0,0.0,-0.26075725985599996,0.965404397873,0.0,0.0,0.005759586531579999,0.0,0.0,0.0
729,0.0,0.0,-0.261346943155,0.965244930214,0.0,0.0,-0.0191986217719,0.0,0.0,0.0
730,0.0,0.0,-0.263283786172,0.9647184293559999,0.0,0.0,-0.250803813512,0.0,0.0,0.0
731,0.0,0.0,-0.27320378441599996,0.9619561799690001,0.0,0.0,-0.313461133658,0.0,0.0,0.0
732,0.0,0.0,-0.280331656578,0.959903204662,0.0,0.0,-0.22095868330200003,0.0,0.0,0.0
733,0.0,0.0,-0.286022867677,0.9582227920299999,0.0,0.0,-0.237713844122,0.0,0.0,0.0
734,0.0,0.0,-0.293706672624,0.955895596002,0.0,0.0,-0.19268434942,0.0,0.0,0.0
735,0.0,0.0,-0.301953954091,0.953322510806,0.0,0.0,-0.508239878181,0.0,0.0,0.0
736,0.0,0.0,-0.322513516381,0.946564858714,0.0,0.0,-0.643328362285,0.0,0.0,0.0
737,0.0,0.0,-0.327795074334,0.944748849823,0.0,0.0,-0.598298867584,0.0,0.0,0.0
738,0.0,0.0,-0.341446053991,0.939901373663,0.0,0.0,-0.47717301749499996,0.0,0.0,0.0
739,0.0,0.0,-0.355759507257,0.9345775371770001,0.0,0.0,-0.508938009882,0.0,0.0,0.0
740,0.0,0.0,-0.36024104244499994,0.932859255911,0.0,0.0,-0.527089434102,0.0,0.0,0.0
741,0.0,0.0,-0.37476841182,0.927118459261,0.0,0.0,-0.575958653158,0.0,0.0,0.0
742,0.0,0.0,-0.38219963773800003,0.924079778435,0.0,0.0,-0.577878515335,0.0,0.0,0.0
743,0.0,0.0,-0.396907609428,0.917858567306,0.0,0.0,-0.56461401302,0.0,0.0,0.0
744,0.0,0.0,-0.40170804297799995,0.9157677916410001,0.0,0.0,-0.563741348394,0.0,0.0,0.0
745,0.0,0.0,-0.41731201980599997,0.9087632684729999,0.0,0.0,-0.482932604027,0.0,0.0,0.0
746,0.0,0.0,-0.421114966287,0.9070072685320001,0.0,0.0,-0.44697882143600004,0.0,0.0,0.0
747,0.0,0.0,-0.434916802325,0.900470640862,0.0,0.0,-0.5012585611729999,0.0,0.0,0.0
748,0.0,0.0,-0.449007125805,0.893528175816,0.0,0.0,-0.5808455750639999,0.0,0.0,0.0
749,0.0,0.0,-0.453757219222,0.8911253480879999,0.0,0.0,-0.572642527579,0.0,0.0,0.0
750,0.0,0.0,-0.469471562786,0.8829475928589999,0.0,0.0,-0.535641547437,0.0,0.0,0.0
751,0.0,0.0,-0.47378083559399997,0.880642787868,0.0,0.0,-0.5167919915160001,0.0,0.0,0.0
752,0.0,0.0,-0.486182870995,0.873857091263,0.0,0.0,-0.51155600376,0.0,0.0,0.0
753,0.0,0.0,-0.501963660617,0.8648887115809999,0.0,0.0,-0.592190215202,0.0,0.0,0.0
754,0.0,0.0,-0.516757481361,0.856131827149,0.0,0.0,-0.614355896702,0.0,0.0,0.0
755,0.0,0.0,-0.5331716207370001,0.846007105668,0.0,0.0,-0.567930138599,0.0,0.0,0.0
756,0.0,0.0,-0.546175063684,0.837671057044,0.0,0.0,-0.541750199819,0.0,0.0,0.0
757,0.0,0.0,-0.5604221896639999,0.828207081189,0.0,0.0,-0.512603201311,0.0,0.0,0.0
758,0.0,0.0,-0.57221744302,0.820101943604,0.0,0.0,-0.528834763354,0.0,0.0,0.0
759,0.0,0.0,-0.587290942296,0.809375900986,0.0,0.0,-0.587303293296,0.0,0.0,0.0
760,0.0,0.0,-0.600629561701,0.799527441437,0.0,0.0,-0.595855406631,0.0,0.0,0.0
761,0.0,0.0,-0.607237178966,0.7945206155169999,0.0,0.0,-0.592888346902,0.0,0.0,0.0
762,0.0,0.0,-0.619847514093,0.784722281621,0.0,0.0,-0.560425222815,0.0,0.0,0.0
763,0.0,0.0,-0.633313339918,0.773895479688,0.0,0.0,-0.512777734236,0.0,0.0,0.0
764,0.0,0.0,-0.636953191093,0.770902479148,0.0,0.0,-0.508763476956,0.0,0.0,0.0
765,0.0,0.0,-0.648319249113,0.761368604048,0.0,0.0,-0.549080582677,0.0,0.0,0.0
766,0.0,0.0,-0.662423949361,0.749129168644,0.0,0.0,-0.596204472481,0.0,0.0,0.0
767,0.0,0.0,-0.6665975227650001,0.745417830913,0.0,0.0,-0.5979498017329999,0.0,0.0,0.0
768,0.0,0.0,-0.6811043341949999,0.732186373775,0.0,0.0,-0.6051056516659999,0.0,0.0,0.0
769,0.0,0.0,-0.685119425359,0.728430760605,0.0,0.0,-0.593586478603,0.0,0.0,0.0
770,0.0,0.0,-0.696539214946,0.717518725918,0.0,0.0,-0.543495529071,0.0,0.0,0.0
771,0.0,0.0,-0.700099656468,0.714045146341,0.0,0.0,-0.536863277913,0.0,0.0,0.0
772,0.0,0.0,-0.712087317693,0.7020909143269999,0.0,0.0,-0.534768882811,0.0,0.0,0.0
773,0.0,0.0,-0.715570826341,0.698540186739,0.0,0.0,-0.5387831400909999,0.0,0.0,0.0
774,0.0,0.0,-0.728729630997,0.684801522272,0.0,0.0,-0.610865238198,0.0,0.0,0.0
775,0.0,0.0,-0.737395238315,0.675461518156,0.0,0.0,-0.260752190248,0.0,0.0,0.0
776,0.0,0.0,-0.738808303288,0.6739156408570001,0.0,0.0,-0.21851522234999998,0.0,0.0,0.0
777,0.0,0.0,-0.743670130168,0.668546735461,0.0,0.0,-0.220609617452,0.0,0.0,0.0
778,0.0,0.0,-0.745417830913,0.6665975227650001,0.0,0.0,-0.30176742767,0.0,0.0,0.0
779,0.0,0.0,-0.751954873581,0.659214584257,0.0,0.0,-0.34121186876500004,0.0,0.0,0.0
780,0.0,0.0,-0.758703110659,0.651436558597,0.0,0.0,-0.297578637465,0.0,0.0,0.0
781,0.0,0.0,-0.76328885183,0.6460573725850001,0.0,0.0,-0.134390352404,0.0,0.0,0.0
782,0.0,0.0,-0.762498974393,0.646989423445,0.0,0.0,0.022165681500300002,0.0,0.0,0.0
783,0.0,0.0,-0.762781204191,0.646656658925,0.0,0.0,-0.0403171057211,0.0,0.0,0.0
784,0.0,0.0,-0.763852352535,0.645391031489,0.0,0.0,-0.028274333882299996,0.0,0.0,0.0
785,0.0,0.0,-0.764527785491,0.644590773447,0.0,0.0,-0.04136430327230001,0.0,0.0,0.0
786,0.0,0.0,-0.765483213493,0.643455864734,0.0,0.0,-0.076096355387,0.0,0.0,0.0
787,0.0,0.0,-0.7662126982680001,0.642587037695,0.0,0.0,-0.00820304748437,0.0,0.0,0.0
788,0.0,0.0,-0.7669971944059999,0.641650452952,0.0,0.0,-0.03473205211469999,0.0,0.0,0.0
789,0.0,0.0,-0.767444963979,0.641114831573,0.0,0.0,-0.04485496177630001,0.0,0.0,0.0
790,0.0,0.0,-0.768004149921,0.640444865467,0.0,0.0,-0.063006385997,0.0,0.0,0.0
791,0.0,0.0,-0.768562750995,0.639774411635,0.0,0.0,-0.0329867228627,0.0,0.0,0.0
792,0.0,0.0,-0.769845311576,0.638230519675,0.0,0.0,-0.0387463093943,0.0,0.0,0.0
793,0.0,0.0,-0.770068049148,0.637961754089,0.0,0.0,-0.0305432619099,0.0,0.0,0.0
794,0.0,0.0,-0.770902479148,0.636953191093,0.0,0.0,-0.0319395253115,0.0,0.0,0.0
795,0.0,0.0,-0.771458032058,0.6362802093209999,0.0,0.0,-0.0528834763354,0.0,0.0,0.0
796,0.0,0.0,-0.771846569558,0.63580883374,0.0,0.0,-0.0635299847726,0.0,0.0,0.0
797,0.0,0.0,-0.772844343101,0.634595636084,0.0,0.0,-0.0466002910282,0.0,0.0,0.0
798,0.0,0.0,-0.773121164104,0.634258358726,0.0,0.0,-0.04258603374869999,0.0,0.0,0.0
799,0.0,0.0,-0.773508466216,0.633785967573,0.0,0.0,-0.0181514242207,0.0,0.0,0.0
800,0.0,0.0,-0.77406125421,0.633110712854,0.0,0.0,-0.039793506945500004,0.0,0.0,0.0
801,0.0,0.0,-0.774282204376,0.6328404759390001,0.0,0.0,-0.042935099599099996,0.0,0.0,0.0
802,0.0,0.0,-0.7751650613330001,0.631758757508,0.0,0.0,-0.0610865238198,0.0,0.0,0.0
803,0.0,0.0,-0.7761014409579999,0.630608082205,0.0,0.0,-0.0160570291183,0.0,0.0,0.0
804,0.0,0.0,-0.776376521753,0.63026938405,0.0,0.0,-0.0286233997327,0.0,0.0,0.0
805,0.0,0.0,-0.777036112492,0.629456019022,0.0,0.0,-0.021816615649900003,0.0,0.0,0.0
806,0.0,0.0,-0.777859402544,0.628438342142,0.0,0.0,-0.0567232006898,0.0,0.0,0.0
807,0.0,0.0,-0.778571842519,0.627555484428,0.0,0.0,-0.0502654824574,0.0,0.0,0.0
808,0.0,0.0,-0.779283280466,0.626671819046,0.0,0.0,-0.0204203522483,0.0,0.0,0.0
809,0.0,0.0,-0.780212108937,0.625515039842,0.0,0.0,-0.06806784082780001,0.0,0.0,0.0
810,0.0,0.0,-0.780703146613,0.624902069823,0.0,0.0,-0.00994837673637,0.0,0.0,0.0
811,0.0,0.0,-0.781411572985,0.624015988261,0.0,0.0,-0.0225147473507,0.0,0.0,0.0
812,0.0,0.0,-0.7822821016879999,0.622924323959,0.0,0.0,-0.0727802298082,0.0,0.0,0.0
813,0.0,0.0,-0.782771103982,0.62230972897,0.0,0.0,-0.000174532925199,0.0,0.0,0.0
814,0.0,0.0,-0.7835308143619999,0.6213529294569999,0.0,0.0,-0.0287979326579,0.0,0.0,0.0
815,0.0,0.0,-0.784289355225,0.620395202496,0.0,0.0,-0.0563741348394,0.0,0.0,0.0
816,0.0,0.0,-0.7848845304269999,0.61964205304,0.0,0.0,-0.0317649923863,0.0,0.0,0.0
817,0.0,0.0,-0.785532987588,0.6188197842759999,0.0,0.0,-0.0370009801423,0.0,0.0,0.0
818,0.0,0.0,-0.7861805833159999,0.617996836899,0.0,0.0,-0.041015237421900004,0.0,0.0,0.0
819,0.0,0.0,-0.7863423475650001,0.617790994128,0.0,0.0,-0.026529004630299998,0.0,0.0,0.0
820,0.0,0.0,-0.786881172427,0.617104545827,0.0,0.0,-0.0431096325243,0.0,0.0,0.0
821,0.0,0.0,-0.787096534606,0.6168298348910001,0.0,0.0,-0.0383972435439,0.0,0.0,0.0
822,0.0,0.0,-0.7879570240070001,0.615730239892,0.0,0.0,-0.057770398241,0.0,0.0,0.0
823,0.0,0.0,-0.78822561199,0.615386370179,0.0,0.0,-0.0373500459927,0.0,0.0,0.0
824,0.0,0.0,-0.7888696107800001,0.614560604976,0.0,0.0,-0.03473205211469999,0.0,0.0,0.0
825,0.0,0.0,-0.789137688326,0.614216337183,0.0,0.0,-0.0179768912955,0.0,0.0,0.0
826,0.0,0.0,-0.789244877281,0.61407859732,0.0,0.0,-0.028448866807499997,0.0,0.0,0.0
827,0.0,0.0,-0.789887506015,0.613251765462,0.0,0.0,-0.014835298642,0.0,0.0,0.0
828,0.0,0.0,-0.790048027881,0.613044952383,0.0,0.0,-0.032637657012299995,0.0,0.0,0.0
829,0.0,0.0,-0.790742996769,0.612148277021,0.0,0.0,-0.0162315620435,0.0,0.0,0.0
830,0.0,0.0,-0.791116789314,0.6116651254290001,0.0,0.0,-0.0380481776935,0.0,0.0,0.0
831,0.0,0.0,-0.791383603256,0.611319877395,0.0,0.0,0.0,0.0,0.0,0.0
832,0.0,0.0,-0.7922363951279999,0.610214301892,0.0,0.0,-0.0438077642251,0.0,0.0,0.0
833,0.0,0.0,-0.7925557939769999,0.609799404258,0.0,0.0,-0.0431096325243,0.0,0.0,0.0
834,0.0,0.0,-0.793087642496,0.6091075367459999,0.0,0.0,-0.0038397243543899996,0.0,0.0,0.0
835,0.0,0.0,-0.7934595771199999,0.608622953458,0.0,0.0,-0.013962634016,0.0,0.0,0.0
836,0.0,0.0,-0.7936188870440001,0.608415205372,0.0,0.0,-0.0195476876223,0.0,0.0,0.0
837,0.0,0.0,-0.7937781425730001,0.608207415585,0.0,0.0,0.000698131700798,0.0,0.0,0.0
838,0.0,0.0,-0.794096490407,0.607791710969,0.0,0.0,-0.000349065850399,0.0,0.0,0.0
839,0.0,0.0,-0.793990398648,0.6079302976950001,0.0,0.0,-0.0191986217719,0.0,0.0,0.0
840,0.0,0.0,-0.793884282702,0.608068865901,0.0,0.0,-0.006632251157579999,0.0,0.0,0.0
841,0.0,0.0,-0.794626586297,0.60709849971,0.0,0.0,-0.0144862327916,0.0,0.0,0.0
842,0.0,0.0,-0.794626586297,0.60709849971,0.0,0.0,0.00855211333477,0.0,0.0,0.0
843,0.0,0.0,-0.794785497079,0.606890446154,0.0,0.0,-0.014835298642,0.0,0.0,0.0
844,0.0,0.0,-0.794838455235,0.6068210857240001,0.0,0.0,-0.0406661715715,0.0,0.0,0.0
845,0.0,0.0,-0.795208992819,0.606335433353,0.0,0.0,-0.069987703005,0.0,0.0,0.0
846,0.0,0.0,-0.795420595362,0.606057816115,0.0,0.0,0.00837758040957,0.0,0.0,0.0
847,0.0,0.0,-0.79552636029,0.605918979802,0.0,0.0,-0.021816615649900003,0.0,0.0,0.0
848,0.0,0.0,-0.795473480855,0.605988400266,0.0,0.0,0.0256563400043,0.0,0.0,0.0
849,0.0,0.0,-0.795473480855,0.605988400266,0.0,0.0,-0.00733038285838,0.0,0.0,0.0
850,0.0,0.0,-0.796002002535,0.605293988043,0.0,0.0,0.00680678408278,0.0,0.0,0.0
851,0.0,0.0,-0.795949177639,0.605363450017,0.0,0.0,0.0101229096616,0.0,0.0,0.0
852,0.0,0.0,-0.7961604408499999,0.605085574465,0.0,0.0,-0.00820304748437,0.0,0.0,0.0
853,0.0,0.0,-0.796371607051,0.6048076251860001,0.0,0.0,-0.056897733614999994,0.0,0.0,0.0
854,0.0,0.0,-0.7966881744040001,0.6043905631009999,0.0,0.0,-0.050090949532199995,0.0,0.0,0.0
855,0.0,0.0,-0.7967409143970001,0.604321036641,0.0,0.0,-0.005410520681180001,0.0,0.0,0.0
856,0.0,0.0,-0.7967409143970001,0.604321036641,0.0,0.0,0.0101229096616,0.0,0.0,0.0
857,0.0,0.0,-0.797583928825,0.603207987745,0.0,0.0,-0.0506145483078,0.0,0.0,0.0
858,0.0,0.0,-0.797636565615,0.60313838312,0.0,0.0,0.010646508437200001,0.0,0.0,0.0
859,0.0,0.0,-0.7973733209289999,0.603486360302,0.0,0.0,0.0186750229963,0.0,0.0,0.0
860,0.0,0.0,-0.797425982012,0.6034167740559999,0.0,0.0,-0.0212930168743,0.0,0.0,0.0
861,0.0,0.0,-0.798215169313,0.602372429215,0.0,0.0,-0.028448866807499997,0.0,0.0,0.0
862,0.0,0.0,-0.798320290977,0.602233105213,0.0,0.0,-0.00628318530718,0.0,0.0,0.0
863,0.0,0.0,-0.7981625993629999,0.602442084336,0.0,0.0,0.00418879020479,0.0,0.0,0.0
864,0.0,0.0,-0.7986355100470001,0.601815023152,0.0,0.0,-0.015358897417600001,0.0,0.0,0.0
865,0.0,0.0,-0.7986880252740001,0.601745326765,0.0,0.0,-0.0186750229963,0.0,0.0,0.0
866,0.0,0.0,-0.7988455344600001,0.60153621011,0.0,0.0,0.00994837673637,0.0,0.0,0.0
867,0.0,0.0,-0.7992128429500001,0.601048110939,0.0,0.0,-0.0198967534727,0.0,0.0,0.0
868,0.0,0.0,-0.7992128429500001,0.601048110939,0.0,0.0,0.00296705972839,0.0,0.0,0.0
869,0.0,0.0,-0.799475023575,0.600699331346,0.0,0.0,-0.0291469985083,0.0,0.0,0.0
870,0.0,0.0,-0.7994225996250001,0.600769096416,0.0,0.0,-0.012391837689200002,0.0,0.0,0.0
871,0.0,0.0,-0.799632258893,0.600490008691,0.0,0.0,-0.0354301838155,0.0,0.0,0.0
872,0.0,0.0,-0.799632258893,0.600490008691,0.0,0.0,0.0204203522483,0.0,0.0,0.0
873,0.0,0.0,-0.79989419596,0.6001410461460001,0.0,0.0,-0.00174532925199,0.0,0.0,0.0
874,0.0,0.0,-0.7998418207279999,0.6002108477979999,0.0,0.0,0.0144862327916,0.0,0.0,0.0
875,0.0,0.0,-0.800312978486,0.599582468446,0.0,0.0,-0.05270894341019999,0.0,0.0,0.0
876,0.0,0.0,-0.8005222234880001,0.599303069992,0.0,0.0,-0.00750491578358,0.0,0.0,0.0
877,0.0,0.0,-0.8005222234880001,0.599303069992,0.0,0.0,-0.0261799387799,0.0,0.0,0.0
878,0.0,0.0,-0.800626809413,0.59916334338,0.0,0.0,-0.00488692190558,0.0,0.0,0.0
879,0.0,0.0,-0.800574519499,0.5992332089679999,0.0,0.0,-0.041713369122699996,0.0,0.0,0.0
880,0.0,0.0,-0.80078364257,0.5989537192409999,0.0,0.0,-0.037873644768300005,0.0,0.0,0.0
881,0.0,0.0,-0.80078364257,0.5989537192409999,0.0,0.0,0.0,0.0,0.0,0.0
882,0.0,0.0,-0.8009926680689999,0.598674156533,0.0,0.0,0.0207694180987,0.0,0.0,0.0
883,0.0,0.0,-0.800940420843,0.59874405405,0.0,0.0,0.00628318530718,0.0,0.0,0.0
884,0.0,0.0,-0.8016713267669999,0.597765074121,0.0,0.0,-0.0111701072128,0.0,0.0,0.0
885,0.0,0.0,-0.801619158872,0.597835030866,0.0,0.0,0.00715584993318,0.0,0.0,0.0
886,0.0,0.0,-0.802036331075,0.597275249476,0.0,0.0,-0.030892327760299997,0.0,0.0,0.0
887,0.0,0.0,-0.802140563055,0.597135258632,0.0,0.0,-0.0366519142919,0.0,0.0,0.0
888,0.0,0.0,-0.802401036097,0.596785201953,0.0,0.0,0.0287979326579,0.0,0.0,0.0
889,0.0,0.0,-0.802505182542,0.596645147464,0.0,0.0,-0.020071286397900002,0.0,0.0,0.0
890,0.0,0.0,-0.802557246598,0.596575113404,0.0,0.0,-0.030892327760299997,0.0,0.0,0.0
891,0.0,0.0,-0.8032855014560001,0.595594159769,0.0,0.0,0.015358897417600001,0.0,0.0,0.0
892,0.0,0.0,-0.8032855014560001,0.595594159769,0.0,0.0,-0.0226892802759,0.0,0.0,0.0
893,0.0,0.0,-0.8031815384309999,0.595734350465,0.0,0.0,-0.017278759594700002,0.0,0.0,0.0
894,0.0,0.0,-0.803856860617,0.594822786751,0.0,0.0,0.00261799387799,0.0,0.0,0.0
895,0.0,0.0,-0.8036491793260001,0.595103349486,0.0,0.0,0.0176278254451,0.0,0.0,0.0
896,0.0,0.0,-0.8039087656370001,0.594752634742,0.0,0.0,0.0033161255787899995,0.0,0.0,0.0
897,0.0,0.0,-0.804220067176,0.594331627588,0.0,0.0,-0.07016223593019999,0.0,0.0,0.0
898,0.0,0.0,-0.804582973635,0.593840246647,0.0,0.0,-0.0575958653158,0.0,0.0,0.0
899,0.0,0.0,-0.8045311482330001,0.593910457495,0.0,0.0,0.0,0.0,0.0,0.0
900,0.0,0.0,-0.8045311482330001,0.593910457495,0.0,0.0,0.013089969390000001,0.0,0.0,0.0
901,0.0,0.0,-0.8046347929090001,0.593770031276,0.0,0.0,-0.0256563400043,0.0,0.0,0.0
902,0.0,0.0,-0.8053596191619999,0.592786541533,0.0,0.0,-0.0167551608191,0.0,0.0,0.0
903,0.0,0.0,-0.805307885711,0.5928568201609999,0.0,0.0,0.0116937059884,0.0,0.0,0.0
904,0.0,0.0,-0.805307885711,0.5928568201609999,0.0,0.0,0.00750491578358,0.0,0.0,0.0
905,0.0,0.0,-0.8052044004109999,0.592997363872,0.0,0.0,0.0219911485751,0.0,0.0,0.0
906,0.0,0.0,-0.805773265944,0.59222415004,0.0,0.0,-0.036826447217099996,0.0,0.0,0.0
907,0.0,0.0,-0.805876616284,0.592083507055,0.0,0.0,-0.00593411945678,0.0,0.0,0.0
908,0.0,0.0,-0.8060315957649999,0.5918725087619999,0.0,0.0,-0.000872664625997,0.0,0.0,0.0
909,0.0,0.0,-0.805928282249,0.5920131787990001,0.0,0.0,-0.00820304748437,0.0,0.0,0.0
910,0.0,0.0,-0.806083243316,0.5918021669829999,0.0,0.0,-0.030892327760299997,0.0,0.0,0.0
911,0.0,0.0,-0.8063929996960001,0.59138002168,0.0,0.0,-0.000349065850399,0.0,0.0,0.0
912,0.0,0.0,-0.8063929996960001,0.59138002168,0.0,0.0,-0.008901179185170001,0.0,0.0,0.0
913,0.0,0.0,-0.8064446042669999,0.591309648364,0.0,0.0,0.00593411945678,0.0,0.0,0.0
914,0.0,0.0,-0.806805664289,0.590816909093,0.0,0.0,-0.0403171057211,0.0,0.0,0.0
915,0.0,0.0,-0.8069603121439999,0.59060566762,0.0,0.0,-0.0005235987755980001,0.0,0.0,0.0
916,0.0,0.0,-0.807063379987,0.590464817481,0.0,0.0,0.0116937059884,0.0,0.0,0.0
917,0.0,0.0,-0.807166423246,0.590323949356,0.0,0.0,-0.027052603405900003,0.0,0.0,0.0
918,0.0,0.0,-0.807217935656,0.5902535085499999,0.0,0.0,0.014835298642,0.0,0.0,0.0
919,0.0,0.0,-0.807578350374,0.589760297076,0.0,0.0,-0.0178023583703,0.0,0.0,0.0
920,0.0,0.0,-0.8077841663490001,0.589478363128,0.0,0.0,-0.0403171057211,0.0,0.0,0.0
921,0.0,0.0,-0.807835604965,0.589407868416,0.0,0.0,0.022165681500300002,0.0,0.0,0.0
922,0.0,0.0,-0.8077841663490001,0.589478363128,0.0,0.0,-0.00418879020479,0.0,0.0,0.0
923,0.0,0.0,-0.8078870374279999,0.589337369217,0.0,0.0,0.0186750229963,0.0,0.0,0.0
924,0.0,0.0,-0.808401023617,0.588632130464,0.0,0.0,-0.03403392041390001,0.0,0.0,0.0
925,0.0,0.0,-0.808401023617,0.588632130464,0.0,0.0,0.00820304748437,0.0,0.0,0.0
926,0.0,0.0,-0.808401023617,0.588632130464,0.0,0.0,-0.0244346095279,0.0,0.0,0.0
927,0.0,0.0,-0.808401023617,0.588632130464,0.0,0.0,-0.0239110107523,0.0,0.0,0.0
928,0.0,0.0,-0.808709119852,0.588208772008,0.0,0.0,-0.061261056745,0.0,0.0,0.0
929,0.0,0.0,-0.808914394174,0.587926443442,0.0,0.0,0.0150098315672,0.0,0.0,0.0
930,0.0,0.0,-0.809170848468,0.587573431998,0.0,0.0,-0.0157079632679,0.0,0.0,0.0
931,0.0,0.0,-0.8091195699320001,0.587644043238,0.0,0.0,0.00820304748437,0.0,0.0,0.0
932,0.0,0.0,-0.809478390264,0.587149670609,0.0,0.0,-0.0371755130675,0.0,0.0,0.0
933,0.0,0.0,-0.809529625656,0.587079028057,0.0,0.0,-0.0010471975512,0.0,0.0,0.0
934,0.0,0.0,-0.809222120842,0.587502816283,0.0,0.0,-0.00471238898038,0.0,0.0,0.0
935,0.0,0.0,-0.812541588573,0.582903222532,0.0,0.0,-0.37908551353299996,0.0,0.0,0.0
936,0.0,0.0,-0.8182500623119999,0.574862449223,0.0,0.0,-0.304385421548,0.0,0.0,0.0
937,0.0,0.0,-0.823235463427,0.567700072007,0.0,0.0,-0.274191225488,0.0,0.0,0.0
938,0.0,0.0,-0.827864584251,0.5609280079860001,0.0,0.0,-0.437554043475,0.0,0.0,0.0
939,0.0,0.0,-0.838575497728,0.544785402346,0.0,0.0,-0.545240858323,0.0,0.0,0.0
940,0.0,0.0,-0.847214655028,0.5312507207580001,0.0,0.0,-0.592713813977,0.0,0.0,0.0
941,0.0,0.0,-0.8572122429889999,0.514963270991,0.0,0.0,-0.6044075199660001,0.0,0.0,0.0
942,0.0,0.0,-0.8648449036939999,0.502039134484,0.0,0.0,-0.493579112464,0.0,0.0,0.0
943,0.0,0.0,-0.872282722788,0.489001893172,0.0,0.0,-0.470366233412,0.0,0.0,0.0
944,0.0,0.0,-0.879938951021,0.475086773628,0.0,0.0,-0.626573201466,0.0,0.0,0.0
945,0.0,0.0,-0.8839697188519999,0.467544154228,0.0,0.0,-0.6129596333,0.0,0.0,0.0
946,0.0,0.0,-0.891560513111,0.452901591366,0.0,0.0,-0.592888346902,0.0,0.0,0.0
947,0.0,0.0,-0.899557778955,0.436801788368,0.0,0.0,-0.52098078172,0.0,0.0,0.0
948,0.0,0.0,-0.9015684119949999,0.432636566291,0.0,0.0,-0.48834312470799995,0.0,0.0,0.0
949,0.0,0.0,-0.907227639472,0.420640000688,0.0,0.0,-0.500560429472,0.0,0.0,0.0
950,0.0,0.0,-0.9145718706810001,0.404423408521,0.0,0.0,-0.60388392119,0.0,0.0,0.0
951,0.0,0.0,-0.916851164162,0.39922918577600003,0.0,0.0,-0.609818040647,0.0,0.0,0.0
952,0.0,0.0,-0.924546033612,0.38107037634999996,0.0,0.0,-0.615228561328,0.0,0.0,0.0
953,0.0,0.0,-0.926692701471,0.375819952958,0.0,0.0,-0.605454717517,0.0,0.0,0.0
954,0.0,0.0,-0.932323801216,0.361624570082,0.0,0.0,-0.50719268063,0.0,0.0,0.0
955,0.0,0.0,-0.933924004848,0.357471611696,0.0,0.0,-0.470366233412,0.0,0.0,0.0
956,0.0,0.0,-0.939274063153,0.343167938899,0.0,0.0,-0.5075417464800001,0.0,0.0,0.0
957,0.0,0.0,-0.94096941809,0.33849158663,0.0,0.0,-0.541750199819,0.0,0.0,0.0
958,0.0,0.0,-0.947266220842,0.320447666323,0.0,0.0,-0.608072711395,0.0,0.0,0.0
959,0.0,0.0,-0.9525287311220001,0.30444870895799997,0.0,0.0,-0.608945376021,0.0,0.0,0.0
960,0.0,0.0,-0.9542142286509999,0.299124064295,0.0,0.0,-0.5996951309849999,0.0,0.0,0.0
961,0.0,0.0,-0.9594124718539999,0.2820065759,0.0,0.0,-0.492880980763,0.0,0.0,0.0
962,0.0,0.0,-0.960658061358,0.27773384588100003,0.0,0.0,-0.474205957767,0.0,0.0,0.0
963,0.0,0.0,-0.9642343169299998,0.265051281935,0.0,0.0,-0.510683339134,0.0,0.0,0.0
964,0.0,0.0,-0.9689726071879999,0.24716813411,0.0,0.0,-0.603011256564,0.0,0.0,0.0
965,0.0,0.0,-0.972977745976,0.23089890826099999,0.0,0.0,-0.601789526088,0.0,0.0,0.0
966,0.0,0.0,-0.9772125867470001,0.21226295085000002,0.0,0.0,-0.574562389757,0.0,0.0,0.0
967,0.0,0.0,-0.9801675471119999,0.19817058204799998,0.0,0.0,-0.500211363622,0.0,0.0,0.0
968,0.0,0.0,-0.983429388065,0.18129158472100002,0.0,0.0,-0.570897198327,0.0,0.0,0.0
969,0.0,0.0,-0.986328777099,0.164789391241,0.0,0.0,-0.6078981784699999,0.0,0.0,0.0
970,0.0,0.0,-0.9895131878460001,0.144442552866,0.0,0.0,-0.64350289521,0.0,0.0,0.0
971,0.0,0.0,-0.9919055272920001,0.126978048998,0.0,0.0,-0.602138591938,0.0,0.0,0.0
972,0.0,0.0,-0.992872207601,0.119183804994,0.0,0.0,-0.550302313154,0.0,0.0,0.0
973,0.0,0.0,-0.994448678381,0.105222745001,0.0,0.0,-0.486248729606,0.0,0.0,0.0
974,0.0,0.0,-0.995994383933,0.08941581053950001,0.0,0.0,-0.5246459731490001,0.0,0.0,0.0
975,0.0,0.0,-0.9964194571289999,0.0845474154281,0.0,0.0,-0.5318018230830001,0.0,0.0,0.0
976,0.0,0.0,-0.997672392732,0.068189418384,0.0,0.0,-0.6068509809179999,0.0,0.0,0.0
977,0.0,0.0,-0.9988103964849999,0.04876260733130001,0.0,0.0,-0.589048622548,0.0,0.0,0.0
978,0.0,0.0,-0.9990633867550001,0.0432706510979,0.0,0.0,-0.585208898194,0.0,0.0,0.0
979,0.0,0.0,-0.999684189283,0.0251300954433,0.0,0.0,-0.5560618996850001,0.0,0.0,0.0
980,0.0,0.0,-0.999949643355,0.0100354747446,0.0,0.0,-0.5494296485279999,0.0,0.0,0.0
981,0.0,0.0,-0.999987628751,0.00497416785586,0.0,0.0,-0.554840169209,0.0,0.0,0.0
982,0.0,0.0,0.999909697525,0.0134386307119,0.0,0.0,-0.578402114111,0.0,0.0,0.0
983,0.0,0.0,0.999822352381,0.0188484397154,0.0,0.0,-0.593237412753,0.0,0.0,0.0
984,0.0,0.0,0.999356865459,0.0358588268003,0.0,0.0,-0.626573201466,0.0,0.0,0.0
985,0.0,0.0,0.998450491665,0.05564724335659999,0.0,0.0,-0.611039771123,0.0,0.0,0.0
986,0.0,0.0,0.998124128239,0.061222745990300004,0.0,0.0,-0.600393262686,0.0,0.0,0.0
987,0.0,0.0,0.9968207338770001,0.07967700115889999,0.0,0.0,-0.545764457099,0.0,0.0,0.0
988,0.0,0.0,0.995553748313,0.094195192131,0.0,0.0,-0.508763476956,0.0,0.0,0.0
989,0.0,0.0,0.9939225904000001,0.110081262225,0.0,0.0,-0.393048147549,0.0,0.0,0.0
990,0.0,0.0,0.993109424745,0.11719074401900001,0.0,0.0,-0.23893557459800002,0.0,0.0,0.0
991,0.0,0.0,0.9921910779180001,0.124727161834,0.0,0.0,-0.23230332344000001,0.0,0.0,0.0
992,0.0,0.0,0.99115773816,0.132688877023,0.0,0.0,-0.29949849964200004,0.0,0.0,0.0
993,0.0,0.0,0.989887946127,0.141851521361,0.0,0.0,-0.304559954473,0.0,0.0,0.0
994,0.0,0.0,0.98883454203,0.149017611339,0.0,0.0,-0.167551608191,0.0,0.0,0.0
995,0.0,0.0,0.988795495424,0.149276482507,0.0,0.0,-0.0310668606855,0.0,0.0,0.0
996,0.0,0.0,0.988691039824,0.14996675555400002,0.0,0.0,-0.04136430327230001,0.0,0.0,0.0
997,0.0,0.0,0.988559792693,0.150829494038,0.0,0.0,-0.0134390352404,0.0,0.0,0.0
998,0.0,0.0,0.988493886809,0.15126082024700002,0.0,0.0,0.000349065850399,0.0,0.0,0.0
999,0.0,0.0,0.988308349175,0.152468380166,0.0,0.0,-0.0539306738866,0.0,0.0,0.0
1000,0.0,0.0,0.98825506746,0.152813355565,0.0,0.0,-0.0370009801423,0.0,0.0,0.0
1001,0.0,0.0,0.98820166533,0.153158312343,0.0,0.0,-0.013788101090799998,0.0,0.0,0.0
1002,0.0,0.0,0.988148142789,0.15350325046,0.0,0.0,-0.0230383461263,0.0,0.0,0.0
1003,0.0,0.0,0.9880810702989999,0.153934396799,0.0,0.0,-0.0509636141582,0.0,0.0,0.0
1004,0.0,0.0,0.9878244793179999,0.155572484907,0.0,0.0,-0.0370009801423,0.0,0.0,0.0
1005,0.0,0.0,0.9877837166850001,0.155831091417,0.0,0.0,-0.024783675378299997,0.0,0.0,0.0
1006,0.0,0.0,0.987729261194,0.156175883479,0.0,0.0,-0.0109955742876,0.0,0.0,0.0
1007,0.0,0.0,0.987606296314,0.156951595979,0.0,0.0,-0.0376991118431,0.0,0.0,0.0
1008,0.0,0.0,0.9875514497050001,0.157296326041,0.0,0.0,-0.035081117965099995,0.0,0.0,0.0
1009,0.0,0.0,0.9874551785969999,0.157899557507,0.0,0.0,-0.009599310885969999,0.0,0.0,0.0
1010,0.0,0.0,0.987358539015,0.158502730052,0.0,0.0,-0.0197222205475,0.0,0.0,0.0
1011,0.0,0.0,0.9873170092620001,0.15876121447799998,0.0,0.0,-0.035604716740699996,0.0,0.0,0.0
1012,0.0,0.0,0.987038415041,0.160484165054,0.0,0.0,-0.047298422729,0.0,0.0,0.0
1013,0.0,0.0,0.98699636656,0.160742565604,0.0,0.0,-0.00296705972839,0.0,0.0,0.0
1014,0.0,0.0,0.986869815243,0.161517701081,0.0,0.0,-0.0115191730632,0.0,0.0,0.0
1015,0.0,0.0,0.986700133221,0.16255105998400002,0.0,0.0,-0.0640535835482,0.0,0.0,0.0
1016,0.0,0.0,0.986586410729,0.163239866957,0.0,0.0,0.0012217304764,0.0,0.0,0.0
1017,0.0,0.0,0.986529369161,0.16358424063,0.0,0.0,0.0013962634016,0.0,0.0,0.0
1018,0.0,0.0,0.986285601537,0.165047605861,0.0,0.0,-0.0998328332141,0.0,0.0,0.0
1019,0.0,0.0,0.986010586635,0.16668270169500002,0.0,0.0,-0.0136135681656,0.0,0.0,0.0
1020,0.0,0.0,0.985893979881,0.167371026267,0.0,0.0,-0.008901179185170001,0.0,0.0,0.0
1021,0.0,0.0,0.9858501284639999,0.167629126969,0.0,0.0,-0.0315904594611,0.0,0.0,0.0
1022,0.0,0.0,0.985585601111,0.169177489289,0.0,0.0,-0.0134390352404,0.0,0.0,0.0
1023,0.0,0.0,0.985585601111,0.169177489289,0.0,0.0,-0.00715584993318,0.0,0.0,0.0
1024,0.0,0.0,0.985452425456,0.16995151415100002,0.0,0.0,-0.017453292519900004,0.0,0.0,0.0
1025,0.0,0.0,0.985333536778,0.170639448257,0.0,0.0,-0.0596902604182,0.0,0.0,0.0
1026,0.0,0.0,0.985229115235,0.171241322388,0.0,0.0,-0.059515727493,0.0,0.0,0.0
1027,0.0,0.0,0.985154303328,0.171671193372,0.0,0.0,-0.00680678408278,0.0,0.0,0.0
1028,0.0,0.0,0.985124326048,0.171843132619,0.0,0.0,0.00628318530718,0.0,0.0,0.0
1029,0.0,0.0,0.985109326155,0.171929100279,0.0,0.0,-0.022340214425499997,0.0,0.0,0.0
1030,0.0,0.0,0.9847014936399999,0.174249730053,0.0,0.0,-0.044680428851100004,0.0,0.0,0.0
1031,0.0,0.0,0.984671066327,0.17442159022999998,0.0,0.0,-0.020071286397900002,0.0,0.0,0.0
1032,0.0,0.0,0.984610121718,0.17476529464,0.0,0.0,-0.013788101090799998,0.0,0.0,0.0
1033,0.0,0.0,0.984533772247,0.175194895202,0.0,0.0,-0.027227136331099997,0.0,0.0,0.0
1034,0.0,0.0,0.984472557712,0.17553855164,0.0,0.0,-0.04258603374869999,0.0,0.0,0.0
1035,0.0,0.0,0.9843651436380001,0.17613989891399998,0.0,0.0,0.0020943951023900003,0.0,0.0,0.0
1036,0.0,0.0,0.9842727820730001,0.17665528713,0.0,0.0,-0.0287979326579,0.0,0.0,0.0
1037,0.0,0.0,0.984211057781,0.176998852376,0.0,0.0,-0.0338593874887,0.0,0.0,0.0
1038,0.0,0.0,0.984025165396,0.178029418547,0.0,0.0,-0.04084070449669999,0.0,0.0,0.0
1039,0.0,0.0,0.983978523681,0.178287029629,0.0,0.0,-0.0254818070791,0.0,0.0,0.0
1040,0.0,0.0,0.983947391738,0.178458763563,0.0,0.0,-0.00593411945678,0.0,0.0,0.0
1041,0.0,0.0,0.9838381939059999,0.179059789487,0.0,0.0,-0.014137166941200001,0.0,0.0,0.0
1042,0.0,0.0,0.9836658555869999,0.180004123711,0.0,0.0,-0.0434586983747,0.0,0.0,0.0
1043,0.0,0.0,0.983571470813,0.180519145251,0.0,0.0,-0.014835298642,0.0,0.0,0.0
1044,0.0,0.0,0.983461014437,0.181119941153,0.0,0.0,-0.004014257279590001,0.0,0.0,0.0
1045,0.0,0.0,0.9833343292110001,0.18180648227,0.0,0.0,-0.0392699081699,0.0,0.0,0.0
1046,0.0,0.0,0.983223086489,0.182407133071,0.0,0.0,-0.026005405854700004,0.0,0.0,0.0
1047,0.0,0.0,0.9830475352339999,0.183350875293,0.0,0.0,-0.014311699866400001,0.0,0.0,0.0
1048,0.0,0.0,0.98293534915,0.18395135061299997,0.0,0.0,-0.0403171057211,0.0,0.0,0.0
1049,0.0,0.0,0.982838897713,0.184465989119,0.0,0.0,-0.00523598775598,0.0,0.0,0.0
1050,0.0,0.0,0.982628995271,0.18558086553599998,0.0,0.0,-0.027227136331099997,0.0,0.0,0.0
1051,0.0,0.0,0.982612796544,0.18566661538600002,0.0,0.0,-0.0191986217719,0.0,0.0,0.0
1052,0.0,0.0,0.982564155464,0.185923856449,0.0,0.0,-0.027227136331099997,0.0,0.0,0.0
1053,0.0,0.0,0.982515447041,0.186181084768,0.0,0.0,-0.022165681500300002,0.0,0.0,0.0
1054,0.0,0.0,0.982466671277,0.186438300328,0.0,0.0,-0.034906585039900004,0.0,0.0,0.0
1055,0.0,0.0,0.9824015321799999,0.18678123452599998,0.0,0.0,-0.010646508437200001,0.0,0.0,0.0
1056,0.0,0.0,0.9821233556769999,0.188238450464,0.0,0.0,-0.0324631240871,0.0,0.0,0.0
1057,0.0,0.0,0.9820904869120001,0.188409860458,0.0,0.0,-0.0125663706144,0.0,0.0,0.0
1058,0.0,0.0,0.9819917011210001,0.188924055984,0.0,0.0,-0.0232128790515,0.0,0.0,0.0
1059,0.0,0.0,0.981975210648,0.189009750207,0.0,0.0,-0.00715584993318,0.0,0.0,0.0
1060,0.0,0.0,0.981809894637,0.189866613158,0.0,0.0,-0.00523598775598,0.0,0.0,0.0
1061,0.0,0.0,0.981776741708,0.190037968418,0.0,0.0,-0.020071286397900002,0.0,0.0,0.0
1062,0.0,0.0,0.98172695624,0.190294990453,0.0,0.0,-0.014311699866400001,0.0,0.0,0.0
1063,0.0,0.0,0.9814937344329999,0.19149425387699998,0.0,0.0,-0.0375245789179,0.0,0.0,0.0
1064,0.0,0.0,0.9814268305339999,0.19183684814899998,0.0,0.0,-0.0181514242207,0.0,0.0,0.0
1065,0.0,0.0,0.9813933337399999,0.192008136522,0.0,0.0,0.010471975512,0.0,0.0,0.0
1066,0.0,0.0,0.9812085670280001,0.192950117883,0.0,0.0,-0.036128315516300004,0.0,0.0,0.0
1067,0.0,0.0,0.981242228231,0.19277886174400002,0.0,0.0,-0.00942477796077,0.0,0.0,0.0
1068,0.0,0.0,0.9808023015109999,0.19500473161100002,0.0,0.0,-0.0548033385126,0.0,0.0,0.0
1069,0.0,0.0,0.980580444557,0.19611729080200002,0.0,0.0,0.000174532925199,0.0,0.0,0.0
1070,0.0,0.0,0.980563326361,0.196202861842,0.0,0.0,-0.000174532925199,0.0,0.0,0.0
1071,0.0,0.0,0.980443289909,0.196801817247,0.0,0.0,-0.058992128717400005,0.0,0.0,0.0
1072,0.0,0.0,0.9803056574050001,0.19748624777399998,0.0,0.0,-0.07016223593019999,0.0,0.0,0.0
1073,0.0,0.0,0.980202119474,0.19799950752099998,0.0,0.0,0.0102974425868,0.0,0.0,0.0
1074,0.0,0.0,0.980202119474,0.19799950752099998,0.0,0.0,0.0013962634016,0.0,0.0,0.0
1075,0.0,0.0,0.9802193944580001,0.197913967996,0.0,0.0,-0.0150098315672,0.0,0.0,0.0
1076,0.0,0.0,0.980184837025,0.198085045539,0.0,0.0,-0.027925268031900003,0.0,0.0,0.0
1077,0.0,0.0,0.979976865442,0.1991113839,0.0,0.0,-0.0116937059884,0.0,0.0,0.0
1078,0.0,0.0,0.979942099024,0.199282419096,0.0,0.0,-0.0115191730632,0.0,0.0,0.0
1079,0.0,0.0,0.979942099024,0.199282419096,0.0,0.0,0.0005235987755980001,0.0,0.0,0.0
1080,0.0,0.0,0.979820181493,0.19988099444000001,0.0,0.0,-0.0328121899375,0.0,0.0,0.0
1081,0.0,0.0,0.9797852807549999,0.20005200227800002,0.0,0.0,-0.0185004900711,0.0,0.0,0.0
1082,0.0,0.0,0.979732873687,0.200308502606,0.0,0.0,-0.0190240888467,0.0,0.0,0.0
1083,0.0,0.0,0.9795752495990001,0.20107792114599998,0.0,0.0,-0.017453292519900004,0.0,0.0,0.0
1084,0.0,0.0,0.979399403038,0.201932685142,0.0,0.0,-0.0371755130675,0.0,0.0,0.0
1085,0.0,0.0,0.979311200053,0.202360009512,0.0,0.0,-0.014311699866400001,0.0,0.0,0.0
1086,0.0,0.0,0.979275866654,0.20253092847800003,0.0,0.0,-0.0151843644924,0.0,0.0,0.0
1087,0.0,0.0,0.979116497217,0.2032999874,0.0,0.0,-0.0204203522483,0.0,0.0,0.0
1088,0.0,0.0,0.9790276976610001,0.2037271882,0.0,0.0,-0.010821041362399999,0.0,0.0,0.0
1089,0.0,0.0,0.979009915383,0.203812623708,0.0,0.0,-0.008028514559169999,0.0,0.0,0.0
1090,0.0,0.0,0.9788852306810001,0.20441062876899999,0.0,0.0,-0.020943951023900002,0.0,0.0,0.0
1091,0.0,0.0,0.978760180703,0.20500855755300001,0.0,0.0,-0.006632251157579999,0.0,0.0,0.0
1092,0.0,0.0,0.978760180703,0.20500855755300001,0.0,0.0,-0.007679448708779999,0.0,0.0,0.0
1093,0.0,0.0,0.978724385053,0.20517938030699998,0.0,0.0,-0.0125663706144,0.0,0.0,0.0
1094,0.0,0.0,0.978562935698,0.20594800528,0.0,0.0,0.00174532925199,0.0,0.0,0.0
1095,0.0,0.0,0.9785089851019999,0.20620418539700003,0.0,0.0,-0.0254818070791,0.0,0.0,0.0
1096,0.0,0.0,0.978346730933,0.20697264087900002,0.0,0.0,-0.0239110107523,0.0,0.0,0.0
1097,0.0,0.0,0.978292512096,0.207228764358,0.0,0.0,-0.0324631240871,0.0,0.0,0.0
1098,0.0,0.0,0.978256328953,0.207399505455,0.0,0.0,0.010471975512,0.0,0.0,0.0
1099,0.0,0.0,0.9782382262070001,0.207484873634,0.0,0.0,-0.014835298642,0.0,0.0,0.0
1100,0.0,0.0,0.9782019983660001,0.207655605253,0.0,0.0,-0.0230383461263,0.0,0.0,0.0
1101,0.0,0.0,0.9780749662720001,0.208253116068,0.0,0.0,-0.0275762021815,0.0,0.0,0.0
1102,0.0,0.0,0.97803860435,0.20842381917999997,0.0,0.0,0.0033161255787899995,0.0,0.0,0.0
1103,0.0,0.0,0.978056789035,0.208338468418,0.0,0.0,-0.0183259571459,0.0,0.0,0.0
1104,0.0,0.0,0.978020412216,0.208509168356,0.0,0.0,-0.0171042266695,0.0,0.0,0.0
1105,0.0,0.0,0.977838081261,0.20936257267,0.0,0.0,-0.0434586983747,0.0,0.0,0.0
1106,0.0,0.0,0.977746636525,0.209789215079,0.0,0.0,-0.054279739737,0.0,0.0,0.0
1107,0.0,0.0,0.977673346708,0.21013050025199997,0.0,0.0,0.0183259571459,0.0,0.0,0.0
1108,0.0,0.0,0.977691680331,0.21004518135699998,0.0,0.0,0.0150098315672,0.0,0.0,0.0
1109,0.0,0.0,0.977691680331,0.21004518135699998,0.0,0.0,-0.0005235987755980001,0.0,0.0,0.0
1110,0.0,0.0,0.977471185492,0.211068902334,0.0,0.0,-0.0160570291183,0.0,0.0,0.0
1111,0.0,0.0,0.9774527625339999,0.211154201982,0.0,0.0,-0.0315904594611,0.0,0.0,0.0
1112,0.0,0.0,0.977286620958,0.21192182638300003,0.0,0.0,-0.00750491578358,0.0,0.0,0.0
1113,0.0,0.0,0.977101312177,0.21277458904399998,0.0,0.0,-0.029496064358700003,0.0,0.0,0.0
1114,0.0,0.0,0.977101312177,0.21277458904399998,0.0,0.0,-0.012217304764,0.0,0.0,0.0
1115,0.0,0.0,0.977045574435,0.213030386275,0.0,0.0,-0.0254818070791,0.0,0.0,0.0
1116,0.0,0.0,0.976989769728,0.21328616890500002,0.0,0.0,-0.0293215314335,0.0,0.0,0.0
1117,0.0,0.0,0.9767097418430001,0.21456486242800002,0.0,0.0,-0.017278759594700002,0.0,0.0,0.0
1118,0.0,0.0,0.9766910138079999,0.214650095615,0.0,0.0,-0.0132645023152,0.0,0.0,0.0
1119,0.0,0.0,0.976653535423,0.214820557084,0.0,0.0,-0.00750491578358,0.0,0.0,0.0
1120,0.0,0.0,0.976465697264,0.215672766171,0.0,0.0,-0.0193731546971,0.0,0.0,0.0
1121,0.0,0.0,0.976390353778,0.216013603853,0.0,0.0,-0.012217304764,0.0,0.0,0.0
1122,0.0,0.0,0.976390353778,0.216013603853,0.0,0.0,0.0,0.0,0.0,0.0
1123,0.0,0.0,0.976314891322,0.21635441521499998,0.0,0.0,-0.0390953752447,0.0,0.0,0.0
1124,0.0,0.0,0.97618254578,0.21695077164,0.0,0.0,-0.00157079632679,0.0,0.0,0.0
1125,0.0,0.0,0.9760308476909999,0.217632222696,0.0,0.0,-0.0275762021815,0.0,0.0,0.0
1126,0.0,0.0,0.97601185198,0.21771739662599998,0.0,0.0,-0.00855211333477,0.0,0.0,0.0
1127,0.0,0.0,0.975878673897,0.21831356768000004,0.0,0.0,-0.0509636141582,0.0,0.0,0.0
1128,0.0,0.0,0.9756112253139999,0.21950566517099998,0.0,0.0,0.0109955742876,0.0,0.0,0.0
1129,0.0,0.0,0.9756112253139999,0.21950566517099998,0.0,0.0,-0.0019198621771900001,0.0,0.0,0.0
1130,0.0,0.0,0.975457743712,0.220186716747,0.0,0.0,-0.0195476876223,0.0,0.0,0.0
1131,0.0,0.0,0.975400065537,0.220442083439,0.0,0.0,-0.013788101090799998,0.0,0.0,0.0
1132,0.0,0.0,0.975457743712,0.220186716747,0.0,0.0,-0.00820304748437,0.0,0.0,0.0
1133,0.0,0.0,0.975419299024,0.220356962886,0.0,0.0,-0.0242600766027,0.0,0.0,0.0
1134,0.0,0.0,0.9753037866840001,0.22086766100699998,0.0,0.0,-0.023387411976700002,0.0,0.0,0.0
1135,0.0,0.0,0.975245930244,0.22112298737,0.0,0.0,-0.0240855436775,0.0,0.0,0.0
1136,0.0,0.0,0.975226629909,0.22120809279,0.0,0.0,-0.013962634016,0.0,0.0,0.0
1137,0.0,0.0,0.975071959883,0.22188887545400002,0.0,0.0,0.006632251157579999,0.0,0.0,0.0
1138,0.0,0.0,0.975110671946,0.22171868991399998,0.0,0.0,0.0111701072128,0.0,0.0,0.0
1139,0.0,0.0,0.974955645484,0.222399391499,0.0,0.0,-0.00994837673637,0.0,0.0,0.0
1140,0.0,0.0,0.974955645484,0.222399391499,0.0,0.0,-0.000872664625997,0.0,0.0,0.0
1141,0.0,0.0,0.974722214849,0.223420240532,0.0,0.0,-0.0434586983747,0.0,0.0,0.0
1142,0.0,0.0,0.9746832058149999,0.223590358248,0.0,0.0,-0.0171042266695,0.0,0.0,0.0
1143,0.0,0.0,0.974605098677,0.223930573241,0.0,0.0,0.00628318530718,0.0,0.0,0.0
1144,0.0,0.0,0.974252147129,0.225461202458,0.0,0.0,-0.06579891280019999,0.0,0.0,0.0
1145,0.0,0.0,0.974114238953,0.226056297124,0.0,0.0,-0.000872664625997,0.0,0.0,0.0
1146,0.0,0.0,0.9739561845129999,0.22673630201099998,0.0,0.0,-0.005410520681180001,0.0,0.0,0.0
1147,0.0,0.0,0.973876979277,0.227076263034,0.0,0.0,-0.0371755130675,0.0,0.0,0.0
1148,0.0,0.0,0.973857159427,0.22716124896899997,0.0,0.0,0.00837758040957,0.0,0.0,0.0
1149,0.0,0.0,0.9737579489329999,0.227586152678,0.0,0.0,0.000174532925199,0.0,0.0,0.0
1150,0.0,0.0,0.9735789028730001,0.22835087011100003,0.0,0.0,-0.0549778714378,0.0,0.0,0.0
1151,0.0,0.0,0.97341924665,0.22903050070300002,0.0,0.0,0.0033161255787899995,0.0,0.0,0.0
1152,0.0,0.0,0.973399256261,0.22911544668499997,0.0,0.0,-0.00471238898038,0.0,0.0,0.0
1153,0.0,0.0,0.97341924665,0.22903050070300002,0.0,0.0,0.0158824961931,0.0,0.0,0.0
1154,0.0,0.0,0.9732390663060001,0.229794951674,0.0,0.0,-0.042236967898300004,0.0,0.0,0.0
1155,0.0,0.0,0.973198944698,0.229964810435,0.0,0.0,-0.00837758040957,0.0,0.0,0.0
1156,0.0,0.0,0.973198944698,0.229964810435,0.0,0.0,-0.027227136331099997,0.0,0.0,0.0
1157,0.0,0.0,0.973158793445,0.23013466219,0.0,0.0,0.00296705972839,0.0,0.0,0.0
1158,0.0,0.0,0.973098510982,0.230389426677,0.0,0.0,-0.0478220215046,0.0,0.0,0.0
1159,0.0,0.0,0.9728163110320001,0.23157811854600002,0.0,0.0,0.00314159265359,0.0,0.0,0.0
1160,0.0,0.0,0.972836516331,0.23149322342599998,0.0,0.0,-0.008028514559169999,0.0,0.0,0.0
1161,0.0,0.0,0.972836516331,0.23149322342599998,0.0,0.0,0.012391837689200002,0.0,0.0,0.0
1162,0.0,0.0,0.972593563822,0.232511848327,0.0,0.0,-0.09424777960769999,0.0,0.0,0.0
1163,0.0,0.0,0.972431002928,0.233190790009,0.0,0.0,-0.058992128717400005,0.0,0.0,0.0
1164,0.0,0.0,0.97241064949,0.23327564973499998,0.0,0.0,-0.000698131700798,0.0,0.0,0.0
1165,0.0,0.0,0.972431002928,0.233190790009,0.0,0.0,0.010821041362399999,0.0,0.0,0.0
1166,0.0,0.0,0.9722679680830001,0.233869618037,0.0,0.0,-0.0432841654495,0.0,0.0,0.0
1167,0.0,0.0,0.972165830661,0.23429382769200002,0.0,0.0,-0.007853981633970001,0.0,0.0,0.0
1168,0.0,0.0,0.972145380966,0.234378664273,0.0,0.0,0.004014257279590001,0.0,0.0,0.0
1169,0.0,0.0,0.9720225273309999,0.234887646252,0.0,0.0,-0.0287979326579,0.0,0.0,0.0
1170,0.0,0.0,0.9720225273309999,0.234887646252,0.0,0.0,0.00226892802759,0.0,0.0,0.0
1171,0.0,0.0,0.971837747227,0.23565099843600001,0.0,0.0,-0.0202458193231,0.0,0.0,0.0
1172,0.0,0.0,0.9716729949770001,0.23632941169399999,0.0,0.0,-0.0359537825911,0.0,0.0,0.0
1173,0.0,0.0,0.971611090784,0.236583786987,0.0,0.0,-0.008028514559169999,0.0,0.0,0.0
1174,0.0,0.0,0.9715697843250001,0.23675336150899998,0.0,0.0,-0.0132645023152,0.0,0.0,0.0
1175,0.0,0.0,0.971487082622,0.23709248891100002,0.0,0.0,-0.00645771823238,0.0,0.0,0.0
1176,0.0,0.0,0.9714663887,0.23717726625,0.0,0.0,-0.00750491578358,0.0,0.0,0.0
1177,0.0,0.0,0.971383539033,0.23751635753400002,0.0,0.0,0.0010471975512,0.0,0.0,0.0
1178,0.0,0.0,0.971404262546,0.23743158742400003,0.0,0.0,0.009599310885969999,0.0,0.0,0.0
1179,0.0,0.0,0.971238267316,0.238109697619,0.0,0.0,-0.0195476876223,0.0,0.0,0.0
1180,0.0,0.0,0.9712590426090001,0.23802494018399997,0.0,0.0,0.00872664625997,0.0,0.0,0.0
1181,0.0,0.0,0.97113427991,0.238533457579,0.0,0.0,-0.0432841654495,0.0,0.0,0.0
1182,0.0,0.0,0.971071798717,0.238787691761,0.0,0.0,-0.021816615649900003,0.0,0.0,0.0
1183,0.0,0.0,0.971030107613,0.23895717212499998,0.0,0.0,-0.015533430342700001,0.0,0.0,0.0
1184,0.0,0.0,0.970925750445,0.23938084117699998,0.0,0.0,0.00837758040957,0.0,0.0,0.0
1185,0.0,0.0,0.970925750445,0.23938084117699998,0.0,0.0,0.000698131700798,0.0,0.0,0.0
1186,0.0,0.0,0.970821208427,0.23980446465500002,0.0,0.0,0.015358897417600001,0.0,0.0,0.0
1187,0.0,0.0,0.970800277843,0.23988918387400002,0.0,0.0,-0.0335103216383,0.0,0.0,0.0
1188,0.0,0.0,0.9707164815780001,0.24022804247699997,0.0,0.0,-0.012391837689200002,0.0,0.0,0.0
1189,0.0,0.0,0.9704854320049999,0.241159752582,0.0,0.0,-0.0176278254451,0.0,0.0,0.0
1190,0.0,0.0,0.970464383152,0.241244442494,0.0,0.0,-0.0385717764691,0.0,0.0,0.0
1191,0.0,0.0,0.970295726276,0.2419218956,0.0,0.0,-0.0020943951023900003,0.0,0.0,0.0
1192,0.0,0.0,0.970084240161,0.24276854613200002,0.0,0.0,-0.014311699866400001,0.0,0.0,0.0
1193,0.0,0.0,0.970147763573,0.24251457035500001,0.0,0.0,-0.00872664625997,0.0,0.0,0.0
1194,0.0,0.0,0.9700206502609999,0.24302250527,0.0,0.0,-0.00296705972839,0.0,0.0,0.0
1195,0.0,0.0,0.969744325821,0.244122802168,0.0,0.0,-0.047298422729,0.0,0.0,0.0
1196,0.0,0.0,0.969701703584,0.24429205076299998,0.0,0.0,-0.000698131700798,0.0,0.0,0.0
1197,0.0,0.0,0.9696590518089999,0.244461291916,0.0,0.0,0.0101229096616,0.0,0.0,0.0
1198,0.0,0.0,0.9695095379950001,0.245053577276,0.0,0.0,-0.039968039870699995,0.0,0.0,0.0
1199,0.0,0.0,0.969466753312,0.24522278487799998,0.0,0.0,-0.00942477796077,0.0,0.0,0.0
1200,0.0,0.0,0.969466753312,0.24522278487799998,0.0,0.0,-0.0333357887131,0.0,0.0,0.0
1201,0.0,0.0,0.9692953192720001,0.245899540538,0.0,0.0,0.009250245035569999,0.0,0.0,0.0
1202,0.0,0.0,0.969273856799,0.245984126575,0.0,0.0,-0.024783675378299997,0.0,0.0,0.0
1203,0.0,0.0,0.969123412811,0.24657617634799997,0.0,0.0,0.008901179185170001,0.0,0.0,0.0
1204,0.0,0.0,0.969144926951,0.246491603437,0.0,0.0,-0.000698131700798,0.0,0.0,0.0
1205,0.0,0.0,0.9689726071879999,0.24716813411,0.0,0.0,-0.0116937059884,0.0,0.0,0.0
1206,0.0,0.0,0.9689941729870001,0.24708357435699999,0.0,0.0,0.00820304748437,0.0,0.0,0.0
1207,0.0,0.0,0.968691580357,0.24826723937399997,0.0,0.0,-0.0441568300755,0.0,0.0,0.0
1208,0.0,0.0,0.9686699112639999,0.248351772716,0.0,0.0,0.00226892802759,0.0,0.0,0.0
1209,0.0,0.0,0.968648234795,0.24843630416700002,0.0,0.0,-0.0171042266695,0.0,0.0,0.0
1210,0.0,0.0,0.968691580357,0.24826723937399997,0.0,0.0,-0.009250245035569999,0.0,0.0,0.0
1211,0.0,0.0,0.968583161129,0.24868988716499998,0.0,0.0,-0.0466002910282,0.0,0.0,0.0
1212,0.0,0.0,0.968343989752,0.24961954553000004,0.0,0.0,-0.0034906585039899997,0.0,0.0,0.0
1213,0.0,0.0,0.96832220265,0.249704048534,0.0,0.0,-0.0144862327916,0.0,0.0,0.0
1214,0.0,0.0,0.968213156531,0.250126535017,0.0,0.0,0.00837758040957,0.0,0.0,0.0
1215,0.0,0.0,0.9681257869140001,0.250464489921,0.0,0.0,-0.027925268031900003,0.0,0.0,0.0
1216,0.0,0.0,0.9681039260780001,0.25054897388,0.0,0.0,-0.00174532925199,0.0,0.0,0.0
1217,0.0,0.0,0.967906846807,0.251309243572,0.0,0.0,-0.000698131700798,0.0,0.0,0.0
1218,0.0,0.0,0.967819064366,0.251647091481,0.0,0.0,-0.032637657012299995,0.0,0.0,0.0
1219,0.0,0.0,0.967797100329,0.251731548668,0.0,0.0,-0.010471975512,0.0,0.0,0.0
1220,0.0,0.0,0.967621122723,0.252407137104,0.0,0.0,-0.0144862327916,0.0,0.0,0.0
1221,0.0,0.0,0.96759909236,0.25249157701499997,0.0,0.0,-0.004363323129989999,0.0,0.0,0.0
1222,0.0,0.0,0.967577054629,0.252576015004,0.0,0.0,0.005410520681180001,0.0,0.0,0.0
1223,0.0,0.0,0.9674446735100001,0.253082602519,0.0,0.0,-0.023561944901900004,0.0,0.0,0.0
1224,0.0,0.0,0.9674446735100001,0.253082602519,0.0,0.0,-0.007679448708779999,0.0,0.0,0.0
1225,0.0,0.0,0.967334153302,0.253504705786,0.0,0.0,-0.0387463093943,0.0,0.0,0.0
1226,0.0,0.0,0.9672677527760001,0.253757944585,0.0,0.0,0.000174532925199,0.0,0.0,0.0
1227,0.0,0.0,0.967179115616,0.254095569259,0.0,0.0,0.0,0.0,0.0,0.0
1228,0.0,0.0,0.967223448927,0.253926760789,0.0,0.0,0.0251327412287,0.0,0.0,0.0
1229,0.0,0.0,0.967156937911,0.254179970591,0.0,0.0,-0.0333357887131,0.0,0.0,0.0
1230,0.0,0.0,0.967134752842,0.254264369988,0.0,0.0,0.0033161255787899995,0.0,0.0,0.0
1231,0.0,0.0,0.967068153443,0.254517556558,0.0,0.0,-0.0185004900711,0.0,0.0,0.0
1232,0.0,0.0,0.9670459389139999,0.254601948206,0.0,0.0,0.0010471975512,0.0,0.0,0.0
1233,0.0,0.0,0.9670459389139999,0.254601948206,0.0,0.0,-0.0178023583703,0.0,0.0,0.0
1234,0.0,0.0,0.9670237170200001,0.254686337914,0.0,0.0,-0.013962634016,0.0,0.0,0.0
1235,0.0,0.0,0.967001487762,0.254770725683,0.0,0.0,-0.0109955742876,0.0,0.0,0.0
1236,0.0,0.0,0.9669124970909999,0.255108257352,0.0,0.0,0.0125663706144,0.0,0.0,0.0
1237,0.0,0.0,0.9669347558050001,0.255023877347,0.0,0.0,0.008028514559169999,0.0,0.0,0.0
1238,0.0,0.0,0.966778790184,0.255614496558,0.0,0.0,-0.0050614548307799994,0.0,0.0,0.0
1239,0.0,0.0,0.9668010930750001,0.25553012822,0.0,0.0,-0.00994837673637,0.0,0.0,0.0
1240,0.0,0.0,0.966778790184,0.255614496558,0.0,0.0,0.00872664625997,0.0,0.0,0.0
1241,0.0,0.0,0.966555356361,0.256458072772,0.0,0.0,-0.029496064358700003,0.0,0.0,0.0
1242,0.0,0.0,0.966555356361,0.256458072772,0.0,0.0,-0.0019198621771900001,0.0,0.0,0.0
1243,0.0,0.0,0.966555356361,0.256458072772,0.0,0.0,0.00593411945678,0.0,0.0,0.0
1244,0.0,0.0,0.9663536365719999,0.257217124397,0.0,0.0,-0.046076692252699995,0.0,0.0,0.0
1245,0.0,0.0,0.9663536365719999,0.257217124397,0.0,0.0,0.0186750229963,0.0,0.0,0.0
1246,0.0,0.0,0.966218825541,0.257723070697,0.0,0.0,0.0038397243543899996,0.0,0.0,0.0
1247,0.0,0.0,0.9661062806640001,0.25814463864500004,0.0,0.0,-0.0338593874887,0.0,0.0,0.0
1248,0.0,0.0,0.96601611233,0.258481857621,0.0,0.0,0.0132645023152,0.0,0.0,0.0
1249,0.0,0.0,0.965970984022,0.258650455301,0.0,0.0,-0.0020943951023900003,0.0,0.0,0.0
1250,0.0,0.0,0.965835422553,0.259156201047,0.0,0.0,-0.055850536063800006,0.0,0.0,0.0
1251,0.0,0.0,0.9657222523919999,0.259577601568,0.0,0.0,-0.04206243497309999,0.0,0.0,0.0
1252,0.0,0.0,0.965676932845,0.259746147943,0.0,0.0,0.00733038285838,0.0,0.0,0.0
1253,0.0,0.0,0.965699596295,0.259661875744,0.0,0.0,0.009075712110370001,0.0,0.0,0.0
1254,0.0,0.0,0.965699596295,0.259661875744,0.0,0.0,-0.008028514559169999,0.0,0.0,0.0
1255,0.0,0.0,0.965404397873,0.26075725985599996,0.0,0.0,-0.008028514559169999,0.0,0.0,0.0
1256,0.0,0.0,0.9654271495610001,0.260673011437,0.0,0.0,0.00837758040957,0.0,0.0,0.0
1257,0.0,0.0,0.9653360986990001,0.261009993198,0.0,0.0,-0.0179768912955,0.0,0.0,0.0
1258,0.0,0.0,0.9653360986990001,0.261009993198,0.0,0.0,0.00366519142919,0.0,0.0,0.0
1259,0.0,0.0,0.965244930214,0.261346943155,0.0,0.0,-0.035604716740699996,0.0,0.0,0.0
1260,0.0,0.0,0.965199301866,0.261515406195,0.0,0.0,-0.0102974425868,0.0,0.0,0.0
1261,0.0,0.0,0.965199301866,0.261515406195,0.0,0.0,-0.0321140582367,0.0,0.0,0.0
1262,0.0,0.0,0.965176476666,0.261599634728,0.0,0.0,0.010646508437200001,0.0,0.0,0.0
1263,0.0,0.0,0.965153644117,0.261683861269,0.0,0.0,-0.0134390352404,0.0,0.0,0.0
1264,0.0,0.0,0.9649707191299999,0.262357601798,0.0,0.0,0.0050614548307799994,0.0,0.0,0.0
1265,0.0,0.0,0.964993610476,0.26227339121800003,0.0,0.0,0.009599310885969999,0.0,0.0,0.0
1266,0.0,0.0,0.9648561521760001,0.262778624716,0.0,0.0,-0.015358897417600001,0.0,0.0,0.0
1267,0.0,0.0,0.964833216741,0.262862823299,0.0,0.0,-0.033684854563500004,0.0,0.0,0.0
1268,0.0,0.0,0.9647643663519999,0.263115407033,0.0,0.0,0.00837758040957,0.0,0.0,0.0
1269,0.0,0.0,0.9645804420530001,0.263788875447,0.0,0.0,-0.015358897417600001,0.0,0.0,0.0
1270,0.0,0.0,0.9645804420530001,0.263788875447,0.0,0.0,-0.0254818070791,0.0,0.0,0.0
1271,0.0,0.0,0.964396047629,0.264462215293,0.0,0.0,0.013089969390000001,0.0,0.0,0.0
1272,0.0,0.0,0.964372965275,0.264546373717,0.0,0.0,-0.0190240888467,0.0,0.0,0.0
1273,0.0,0.0,0.964419122639,0.264378054854,0.0,0.0,-0.0193731546971,0.0,0.0,0.0
1274,0.0,0.0,0.964164893623,0.265303708803,0.0,0.0,0.0050614548307799994,0.0,0.0,0.0
1275,0.0,0.0,0.964164893623,0.265303708803,0.0,0.0,-0.0198967534727,0.0,0.0,0.0
1276,0.0,0.0,0.964164893623,0.265303708803,0.0,0.0,-0.0389208423195,0.0,0.0,0.0
1277,0.0,0.0,0.963863295733,0.26639734821899996,0.0,0.0,0.00261799387799,0.0,0.0,0.0
1278,0.0,0.0,0.96379352004,0.26664967790800004,0.0,0.0,-0.014660765716799999,0.0,0.0,0.0
1279,0.0,0.0,0.963863295733,0.26639734821899996,0.0,0.0,-0.0111701072128,0.0,0.0,0.0
1280,0.0,0.0,0.963630453209,0.267238376078,0.0,0.0,0.0125663706144,0.0,0.0,0.0
1281,0.0,0.0,0.963677080427,0.267070186767,0.0,0.0,0.00715584993318,0.0,0.0,0.0
1282,0.0,0.0,0.963560457343,0.26749064478,0.0,0.0,-0.00174532925199,0.0,0.0,0.0
1283,0.0,0.0,0.963583796636,0.267406557249,0.0,0.0,0.0150098315672,0.0,0.0,0.0
1284,0.0,0.0,0.963209487491,0.26875171294,0.0,0.0,-0.0706858347058,0.0,0.0,0.0
1285,0.0,0.0,0.9631156167649999,0.269087920099,0.0,0.0,-0.0249582083035,0.0,0.0,0.0
1286,0.0,0.0,0.9631156167649999,0.269087920099,0.0,0.0,-0.00837758040957,0.0,0.0,0.0
1287,0.0,0.0,0.963186030812,0.268835767801,0.0,0.0,0.0116937059884,0.0,0.0,0.0
1288,0.0,0.0,0.963139095449,0.26900387138099996,0.0,0.0,-0.028972465583099998,0.0,0.0,0.0
1289,0.0,0.0,0.96290397858,0.269844266264,0.0,0.0,0.0129154364648,0.0,0.0,0.0
1290,0.0,0.0,0.962951060623,0.269676203707,0.0,0.0,0.014311699866400001,0.0,0.0,0.0
1291,0.0,0.0,0.962927523268,0.26976023601300003,0.0,0.0,-0.00488692190558,0.0,0.0,0.0
1292,0.0,0.0,0.962762556466,0.270348404596,0.0,0.0,-0.063879050623,0.0,0.0,0.0
1293,0.0,0.0,0.962620870405,0.27085246880999997,0.0,0.0,0.00733038285838,0.0,0.0,0.0
1294,0.0,0.0,0.962691746426,0.270600445976,0.0,0.0,0.00471238898038,0.0,0.0,0.0
1295,0.0,0.0,0.9625735830700001,0.27102047372,0.0,0.0,-0.050090949532199995,0.0,0.0,0.0
1296,0.0,0.0,0.962431545141,0.271524438895,0.0,0.0,0.004014257279590001,0.0,0.0,0.0
1297,0.0,0.0,0.962431545141,0.271524438895,0.0,0.0,0.006981317007979999,0.0,0.0,0.0
1298,0.0,0.0,0.962431545141,0.271524438895,0.0,0.0,-0.0280998009571,0.0,0.0,0.0
1299,0.0,0.0,0.9621942289309999,0.272364215364,0.0,0.0,0.00226892802759,0.0,0.0,0.0
1300,0.0,0.0,0.9621942289309999,0.272364215364,0.0,0.0,0.0010471975512,0.0,0.0,0.0
1301,0.0,0.0,0.962146677753,0.272532145788,0.0,0.0,-0.0219911485751,0.0,0.0,0.0
1302,0.0,0.0,0.961980017834,0.273119836863,0.0,0.0,0.0,0.0,0.0,0.0
1303,0.0,0.0,0.961980017834,0.273119836863,0.0,0.0,-0.009250245035569999,0.0,0.0,0.0
1304,0.0,0.0,0.961932334778,0.27328772988899996,0.0,0.0,-0.022165681500300002,0.0,0.0,0.0
1305,0.0,0.0,0.961812998946,0.273707426021,0.0,0.0,-0.009075712110370001,0.0,0.0,0.0
1306,0.0,0.0,0.961812998946,0.273707426021,0.0,0.0,-0.0010471975512,0.0,0.0,0.0
1307,0.0,0.0,0.961789109805,0.273791358997,0.0,0.0,-0.00296705972839,0.0,0.0,0.0
1308,0.0,0.0,0.961741309549,0.27395921869199996,0.0,0.0,0.00157079632679,0.0,0.0,0.0
1309,0.0,0.0,0.961741309549,0.27395921869199996,0.0,0.0,-0.0038397243543899996,0.0,0.0,0.0
1310,0.0,0.0,0.9616456211509999,0.27429491304299997,0.0,0.0,0.00558505360638,0.0,0.0,0.0
1311,0.0,0.0,0.961525845879,0.274714483977,0.0,0.0,-0.0160570291183,0.0,0.0,0.0
1312,0.0,0.0,0.961549815579,0.27463057397199997,0.0,0.0,-0.0181514242207,0.0,0.0,0.0
1313,0.0,0.0,0.9614778845119999,0.274882297711,0.0,0.0,0.014137166941200001,0.0,0.0,0.0
1314,0.0,0.0,0.9614778845119999,0.274882297711,0.0,0.0,-0.0212930168743,0.0,0.0,0.0
1315,0.0,0.0,0.961381873914,0.275217900052,0.0,0.0,-0.0268780704807,0.0,0.0,0.0
1316,0.0,0.0,0.961309789091,0.275469579804,0.0,0.0,0.0202458193231,0.0,0.0,0.0
1317,0.0,0.0,0.9612857461750001,0.27555346886,0.0,0.0,-0.009250245035569999,0.0,0.0,0.0
1318,0.0,0.0,0.9611413349519999,0.276056759104,0.0,0.0,-0.034906585039900004,0.0,0.0,0.0
1319,0.0,0.0,0.96104491441,0.27639224389600003,0.0,0.0,0.015358897417600001,0.0,0.0,0.0
1320,0.0,0.0,0.961069030524,0.276308375854,0.0,0.0,-0.0111701072128,0.0,0.0,0.0
1321,0.0,0.0,0.960972522156,0.276643835392,0.0,0.0,-0.0375245789179,0.0,0.0,0.0
1322,0.0,0.0,0.960851722038,0.277063112407,0.0,0.0,-0.0251327412287,0.0,0.0,0.0
1323,0.0,0.0,0.9607065204269999,0.27756617519,0.0,0.0,0.00523598775598,0.0,0.0,0.0
1324,0.0,0.0,0.960803350768,0.27723080844799997,0.0,0.0,0.00628318530718,0.0,0.0,0.0
1325,0.0,0.0,0.960851722038,0.277063112407,0.0,0.0,0.0,0.0,0.0,0.0
1326,0.0,0.0,0.960851722038,0.277063112407,0.0,0.0,-0.0010471975512,0.0,0.0,0.0
1327,0.0,0.0,0.960827540061,0.277146961483,0.0,0.0,0.0,0.0,0.0,0.0
1328,0.0,0.0,0.960900064038,0.276895407927,0.0,0.0,0.024783675378299997,0.0,0.0,0.0
1329,0.0,0.0,0.9609483767679999,0.276727695011,0.0,0.0,0.0157079632679,0.0,0.0,0.0
1330,0.0,0.0,0.9609966602259999,0.276559973666,0.0,0.0,0.00523598775598,0.0,0.0,0.0
1331,0.0,0.0,0.9609242240620001,0.276811552523,0.0,0.0,0.0,0.0,0.0,0.0
1332,0.0,0.0,0.9609242240620001,0.276811552523,0.0,0.0,0.0,0.0,0.0,0.0
1333,0.0,0.0,0.9609242240620001,0.276811552523,0.0,0.0,0.0,0.0,0.0,0.0
1334,0.0,0.0,0.9609242240620001,0.276811552523,0.0,0.0,0.0,0.0,0.0,0.0
1335,0.0,0.0,0.9609242240620001,0.276811552523,0.0,0.0,0.0,0.0,0.0,0.0
1336,0.0,0.0,0.9609242240620001,0.276811552523,0.0,0.0,0.0,0.0,0.0,0.0
1337,0.0,0.0,0.9609242240620001,0.276811552523,0.0,0.0,0.0,0.0,0.0,0.0
1338,0.0,0.0,0.9609242240620001,0.276811552523,0.0,0.0,0.0,0.0,0.0,0.0
1339,0.0,0.0,0.9609242240620001,0.276811552523,0.0,0.0,0.0,0.0,0.0,0.0
1340,0.0,0.0,0.9609242240620001,0.276811552523,0.0,0.0,0.0,0.0,0.0,0.0
1341,0.0,0.0,0.9609242240620001,0.276811552523,0.0,0.0,0.0,0.0,0.0,0.0
1342,0.0,0.0,0.9609242240620001,0.276811552523,0.0,0.0,0.0,0.0,0.0,0.0
1343,0.0,0.0,0.9609242240620001,0.276811552523,0.0,0.0,0.0,0.0,0.0,0.0
1344,0.0,0.0,0.9609242240620001,0.276811552523,0.0,0.0,0.0,0.0,0.0,0.0
1345,0.0,0.0,0.9609242240620001,0.276811552523,0.0,0.0,0.0,0.0,0.0,0.0
1346,0.0,0.0,0.9609242240620001,0.276811552523,0.0,0.0,0.0,0.0,0.0,0.0
1347,0.0,0.0,0.9609242240620001,0.276811552523,0.0,0.0,0.0,0.0,0.0,0.0
1348,0.0,0.0,0.9609242240620001,0.276811552523,0.0,0.0,0.0,0.0,0.0,0.0
1349,0.0,0.0,0.9609242240620001,0.276811552523,0.0,0.0,0.0,0.0,0.0,0.0
1350,0.0,0.0,0.9609242240620001,0.276811552523,0.0,0.0,0.0,0.0,0.0,0.0
1351,0.0,0.0,0.9609242240620001,0.276811552523,0.0,0.0,0.0,0.0,0.0,0.0
1352,0.0,0.0,0.9609242240620001,0.276811552523,0.0,0.0,0.0,0.0,0.0,0.0
1353,0.0,0.0,0.9609242240620001,0.276811552523,0.0,0.0,0.0,0.0,0.0,0.0
1354,0.0,0.0,0.9609242240620001,0.276811552523,0.0,0.0,0.0,0.0,0.0,0.0
1355,0.0,0.0,0.9609242240620001,0.276811552523,0.0,0.0,0.0,0.0,0.0,0.0
1356,0.0,0.0,0.9609242240620001,0.276811552523,0.0,0.0,0.0,0.0,0.0,0.0
1357,0.0,0.0,0.9609242240620001,0.276811552523,0.0,0.0,0.0,0.0,0.0,0.0
1358,0.0,0.0,0.9609242240620001,0.276811552523,0.0,0.0,0.0,0.0,0.0,0.0
1359,0.0,0.0,0.9609242240620001,0.276811552523,0.0,0.0,0.0,0.0,0.0,0.0
1360,0.0,0.0,0.9609242240620001,0.276811552523,0.0,0.0,0.0,0.0,0.0,0.0
1361,0.0,0.0,0.9609242240620001,0.276811552523,0.0,0.0,0.0,0.0,0.0,0.0
1362,0.0,0.0,0.9609242240620001,0.276811552523,0.0,0.0,0.0,0.0,0.0,0.0
