,orientation_X,orientation_Y,orientation_Z,orientation_W,angular_velocity_X,angular_velocity_Y,angular_velocity_Z,linear_acceleration_X,linear_acceleration_Y,linear_acceleration_Z
0,0.0,0.0,0.487935834103,0.872879500159,0.0,0.0,0.0,0.0,0.0,0.0
1,0.0,0.0,0.487935834103,0.872879500159,0.0,0.0,0.0,0.0,0.0,0.0
2,0.0,0.0,0.487935834103,0.872879500159,0.0,0.0,0.0,0.0,0.0,0.0
3,0.0,0.0,0.487935834103,0.872879500159,0.0,0.0,0.0,0.0,0.0,0.0
4,0.0,0.0,0.487935834103,0.872879500159,0.0,0.0,0.0,0.0,0.0,0.0
5,0.0,0.0,0.487935834103,0.872879500159,0.0,0.0,0.0,0.0,0.0,0.0
6,0.0,0.0,0.487935834103,0.872879500159,0.0,0.0,0.0,0.0,0.0,0.0
7,0.0,0.0,0.487935834103,0.872879500159,0.0,0.0,0.0,0.0,0.0,0.0
8,0.0,0.0,0.487935834103,0.872879500159,0.0,0.0,0.0,0.0,0.0,0.0
9,0.0,0.0,0.487935834103,0.872879500159,0.0,0.0,0.0,0.0,0.0,0.0
10,0.0,0.0,0.487935834103,0.872879500159,0.0,0.0,0.0,0.0,0.0,0.0
11,0.0,0.0,0.487935834103,0.872879500159,0.0,0.0,0.0,0.0,0.0,0.0
12,0.0,0.0,0.487935834103,0.872879500159,0.0,0.0,0.0,0.0,0.0,0.0
13,0.0,0.0,0.487935834103,0.872879500159,0.0,0.0,0.0,0.0,0.0,0.0
14,0.0,0.0,0.487935834103,0.872879500159,0.0,0.0,0.0,0.0,0.0,0.0
15,0.0,0.0,0.487935834103,0.872879500159,0.0,0.0,0.0,0.0,0.0,0.0
16,0.0,0.0,0.487935834103,0.872879500159,0.0,0.0,0.0,0.0,0.0,0.0
17,0.0,0.0,0.487935834103,0.872879500159,0.0,0.0,0.0,0.0,0.0,0.0
18,0.0,0.0,0.487935834103,0.872879500159,0.0,0.0,0.0,0.0,0.0,0.0
19,0.0,0.0,0.487935834103,0.872879500159,0.0,0.0,0.0,0.0,0.0,0.0
20,0.0,0.0,0.487935834103,0.872879500159,0.0,0.0,0.0,0.0,0.0,0.0
21,0.0,0.0,0.487935834103,0.872879500159,0.0,0.0,0.0,0.0,0.0,0.0
22,0.0,0.0,0.487935834103,0.872879500159,0.0,0.0,0.0013962634016,0.0,0.0,0.0
23,0.0,0.0,0.487935834103,0.872879500159,0.0,0.0,0.0005235987755980001,0.0,0.0,0.0
24,0.0,0.0,0.487935834103,0.872879500159,0.0,0.0,0.0,0.0,0.0,0.0
25,0.0,0.0,0.487935834103,0.872879500159,0.0,0.0,-0.00174532925199,0.0,0.0,0.0
26,0.0,0.0,0.488012005351,0.872836916401,0.0,0.0,0.0240855436775,0.0,0.0,0.0
27,0.0,0.0,0.48816433669799997,0.872751728945,0.0,0.0,0.014311699866400001,0.0,0.0,0.0
28,0.0,0.0,0.488316653174,0.872666514903,0.0,0.0,0.00837758040957,0.0,0.0,0.0
29,0.0,0.0,0.488392805834,0.872623897913,0.0,0.0,0.00244346095279,0.0,0.0,0.0
30,0.0,0.0,0.488012005351,0.872836916401,0.0,0.0,-0.0185004900711,0.0,0.0,0.0
31,0.0,0.0,0.48740253135399997,0.87317740032,0.0,0.0,-0.006632251157579999,0.0,0.0,0.0
32,0.0,0.0,0.48740253135399997,0.87317740032,0.0,0.0,0.0012217304764,0.0,0.0,0.0
33,0.0,0.0,0.487707298065,0.873007211547,0.0,0.0,0.008028514559169999,0.0,0.0,0.0
34,0.0,0.0,0.488012005351,0.872836916401,0.0,0.0,0.00628318530718,0.0,0.0,0.0
35,0.0,0.0,0.487935834103,0.872879500159,0.0,0.0,-0.00750491578358,0.0,0.0,0.0
36,0.0,0.0,0.487326330395,0.87321993089,0.0,0.0,-0.022863813201099998,0.0,0.0,0.0
37,0.0,0.0,0.487326330395,0.87321993089,0.0,0.0,0.008028514559169999,0.0,0.0,0.0
38,0.0,0.0,0.487783480459,0.8729646477330001,0.0,0.0,0.013788101090799998,0.0,0.0,0.0
39,0.0,0.0,0.487935834103,0.872879500159,0.0,0.0,0.00733038285838,0.0,0.0,0.0
40,0.0,0.0,0.487783480459,0.8729646477330001,0.0,0.0,-0.0160570291183,0.0,0.0,0.0
41,0.0,0.0,0.487478728601,0.8731348631010001,0.0,0.0,-0.0158824961931,0.0,0.0,0.0
42,0.0,0.0,0.487250125725,0.8732624548100001,0.0,0.0,-0.026354471705099997,0.0,0.0,0.0
43,0.0,0.0,0.48686904672799997,0.873474974649,0.0,0.0,-0.00820304748437,0.0,0.0,0.0
44,0.0,0.0,0.487173917345,0.8733049720799999,0.0,0.0,0.0193731546971,0.0,0.0,0.0
45,0.0,0.0,0.487326330395,0.87321993089,0.0,0.0,0.0125663706144,0.0,0.0,0.0
46,0.0,0.0,0.487631111957,0.873049768714,0.0,0.0,0.009250245035569999,0.0,0.0,0.0
47,0.0,0.0,0.487631111957,0.873049768714,0.0,0.0,-0.005410520681180001,0.0,0.0,0.0
48,0.0,0.0,0.48755492213600005,0.8730923192319999,0.0,0.0,-0.0157079632679,0.0,0.0,0.0
49,0.0,0.0,0.486945269945,0.873432483984,0.0,0.0,-0.0144862327916,0.0,0.0,0.0
50,0.0,0.0,0.486945269945,0.873432483984,0.0,0.0,0.0216420827247,0.0,0.0,0.0
51,0.0,0.0,0.487478728601,0.8731348631010001,0.0,0.0,0.007679448708779999,0.0,0.0,0.0
52,0.0,0.0,0.487478728601,0.8731348631010001,0.0,0.0,0.00366519142919,0.0,0.0,0.0
53,0.0,0.0,0.48755492213600005,0.8730923192319999,0.0,0.0,0.000698131700798,0.0,0.0,0.0
54,0.0,0.0,0.487097705254,0.873347482699,0.0,0.0,-0.017453292519900004,0.0,0.0,0.0
55,0.0,0.0,0.48671658917099997,0.8735599360240001,0.0,0.0,-0.00593411945678,0.0,0.0,0.0
56,0.0,0.0,0.487173917345,0.8733049720799999,0.0,0.0,0.0219911485751,0.0,0.0,0.0
57,0.0,0.0,0.487478728601,0.8731348631010001,0.0,0.0,-0.00261799387799,0.0,0.0,0.0
58,0.0,0.0,0.487250125725,0.8732624548100001,0.0,0.0,-0.0144862327916,0.0,0.0,0.0
59,0.0,0.0,0.48671658917099997,0.8735599360240001,0.0,0.0,-0.0165806278939,0.0,0.0,0.0
60,0.0,0.0,0.48671658917099997,0.8735599360240001,0.0,0.0,0.0150098315672,0.0,0.0,0.0
61,0.0,0.0,0.487173917345,0.8733049720799999,0.0,0.0,0.0167551608191,0.0,0.0,0.0
62,0.0,0.0,0.487250125725,0.8732624548100001,0.0,0.0,-0.00296705972839,0.0,0.0,0.0
63,0.0,0.0,0.486945269945,0.873432483984,0.0,0.0,-0.0171042266695,0.0,0.0,0.0
64,0.0,0.0,0.486411629583,0.8737297789399999,0.0,0.0,-0.0202458193231,0.0,0.0,0.0
65,0.0,0.0,0.486259127561,0.8738146604770001,0.0,0.0,-0.00994837673637,0.0,0.0,0.0
66,0.0,0.0,0.486564116787,0.8736448707879999,0.0,0.0,0.0171042266695,0.0,0.0,0.0
67,0.0,0.0,0.487097705254,0.873347482699,0.0,0.0,0.009250245035569999,0.0,0.0,0.0
68,0.0,0.0,0.487097705254,0.873347482699,0.0,0.0,0.0010471975512,0.0,0.0,0.0
69,0.0,0.0,0.486945269945,0.873432483984,0.0,0.0,-0.006632251157579999,0.0,0.0,0.0
70,0.0,0.0,0.48648787503700003,0.873687328191,0.0,0.0,-0.0205948851735,0.0,0.0,0.0
71,0.0,0.0,0.486411629583,0.8737297789399999,0.0,0.0,-0.008028514559169999,0.0,0.0,0.0
72,0.0,0.0,0.48679281980300004,0.873517458663,0.0,0.0,0.0216420827247,0.0,0.0,0.0
73,0.0,0.0,0.487021489454,0.8733899866670001,0.0,0.0,-0.009250245035569999,0.0,0.0,0.0
74,0.0,0.0,0.48648787503700003,0.873687328191,0.0,0.0,-0.0232128790515,0.0,0.0,0.0
75,0.0,0.0,0.485954079085,0.8739843436929999,0.0,0.0,-0.0150098315672,0.0,0.0,0.0
76,0.0,0.0,0.486106610727,0.873899515395,0.0,0.0,0.0176278254451,0.0,0.0,0.0
77,0.0,0.0,0.486335380423,0.873772223035,0.0,0.0,0.020943951023900002,0.0,0.0,0.0
78,0.0,0.0,0.48648787503700003,0.873687328191,0.0,0.0,0.0,0.0,0.0,0.0
79,0.0,0.0,0.486335380423,0.873772223035,0.0,0.0,-0.0158824961931,0.0,0.0,0.0
80,0.0,0.0,0.486030346756,0.8739419328720001,0.0,0.0,-0.00872664625997,0.0,0.0,0.0
81,0.0,0.0,0.486182870995,0.873857091263,0.0,0.0,0.0179768912955,0.0,0.0,0.0
82,0.0,0.0,0.48648787503700003,0.873687328191,0.0,0.0,0.006632251157579999,0.0,0.0,0.0
83,0.0,0.0,0.48648787503700003,0.873687328191,0.0,0.0,-0.00418879020479,0.0,0.0,0.0
84,0.0,0.0,0.486182870995,0.873857091263,0.0,0.0,-0.013089969390000001,0.0,0.0,0.0
85,0.0,0.0,0.485725253868,0.8741115362209999,0.0,0.0,-0.00558505360638,0.0,0.0,0.0
86,0.0,0.0,0.485725253868,0.8741115362209999,0.0,0.0,-0.0033161255787899995,0.0,0.0,0.0
87,0.0,0.0,0.485954079085,0.8739843436929999,0.0,0.0,0.0193731546971,0.0,0.0,0.0
88,0.0,0.0,0.486182870995,0.873857091263,0.0,0.0,-0.00872664625997,0.0,0.0,0.0
89,0.0,0.0,0.486030346756,0.8739419328720001,0.0,0.0,-0.0144862327916,0.0,0.0,0.0
90,0.0,0.0,0.48564897139700003,0.874153920417,0.0,0.0,-0.0197222205475,0.0,0.0,0.0
91,0.0,0.0,0.485420101795,0.874281033063,0.0,0.0,-0.009599310885969999,0.0,0.0,0.0
92,0.0,0.0,0.485725253868,0.8741115362209999,0.0,0.0,0.0188495559215,0.0,0.0,0.0
93,0.0,0.0,0.485877807712,0.8740267478589999,0.0,0.0,0.0207694180987,0.0,0.0,0.0
94,0.0,0.0,0.486030346756,0.8739419328720001,0.0,0.0,-0.013962634016,0.0,0.0,0.0
95,0.0,0.0,0.485954079085,0.8739843436929999,0.0,0.0,-0.0164060949687,0.0,0.0,0.0
96,0.0,0.0,0.48564897139700003,0.874153920417,0.0,0.0,-0.0150098315672,0.0,0.0,0.0
97,0.0,0.0,0.485420101795,0.874281033063,0.0,0.0,-0.000174532925199,0.0,0.0,0.0
98,0.0,0.0,0.48549639536000005,0.874238668839,0.0,0.0,0.013962634016,0.0,0.0,0.0
99,0.0,0.0,0.485954079085,0.8739843436929999,0.0,0.0,0.011344640138,0.0,0.0,0.0
100,0.0,0.0,0.485725253868,0.8741115362209999,0.0,0.0,-0.022340214425499997,0.0,0.0,0.0
101,0.0,0.0,0.485267503577,0.8743657415360001,0.0,0.0,-0.008028514559169999,0.0,0.0,0.0
102,0.0,0.0,0.485191198924,0.874408085786,0.0,0.0,-0.00366519142919,0.0,0.0,0.0
103,0.0,0.0,0.485572685227,0.8741962979569999,0.0,0.0,0.024783675378299997,0.0,0.0,0.0
104,0.0,0.0,0.48580153264,0.874069145368,0.0,0.0,-0.004014257279590001,0.0,0.0,0.0
105,0.0,0.0,0.485725253868,0.8741115362209999,0.0,0.0,-0.010646508437200001,0.0,0.0,0.0
106,0.0,0.0,0.485420101795,0.874281033063,0.0,0.0,-0.0254818070791,0.0,0.0,0.0
107,0.0,0.0,0.48496226279700005,0.8745350785770001,0.0,0.0,-0.010821041362399999,0.0,0.0,0.0
108,0.0,0.0,0.485191198924,0.874408085786,0.0,0.0,0.0204203522483,0.0,0.0,0.0
109,0.0,0.0,0.48549639536000005,0.874238668839,0.0,0.0,0.0020943951023900003,0.0,0.0,0.0
110,0.0,0.0,0.485267503577,0.8743657415360001,0.0,0.0,-0.0127409035396,0.0,0.0,0.0
111,0.0,0.0,0.485038578533,0.874492754306,0.0,0.0,-0.0157079632679,0.0,0.0,0.0
112,0.0,0.0,0.484809620246,0.874619707139,0.0,0.0,0.0019198621771900001,0.0,0.0,0.0
113,0.0,0.0,0.485191198924,0.874408085786,0.0,0.0,0.0216420827247,0.0,0.0,0.0
114,0.0,0.0,0.485343804534,0.8743233906290001,0.0,0.0,0.0188495559215,0.0,0.0,0.0
115,0.0,0.0,0.485267503577,0.8743657415360001,0.0,0.0,-0.015533430342700001,0.0,0.0,0.0
116,0.0,0.0,0.484733293432,0.8746620114299999,0.0,0.0,-0.0230383461263,0.0,0.0,0.0
117,0.0,0.0,0.484580628731,0.874746600027,0.0,0.0,-0.013788101090799998,0.0,0.0,0.0
118,0.0,0.0,0.484733293432,0.8746620114299999,0.0,0.0,0.0151843644924,0.0,0.0,0.0
119,0.0,0.0,0.484885943368,0.874577396189,0.0,0.0,0.0132645023152,0.0,0.0,0.0
120,0.0,0.0,0.48496226279700005,0.8745350785770001,0.0,0.0,-0.014835298642,0.0,0.0,0.0
121,0.0,0.0,0.484809620246,0.874619707139,0.0,0.0,-0.0207694180987,0.0,0.0,0.0
122,0.0,0.0,0.484427949268,0.8748311619779999,0.0,0.0,-0.00558505360638,0.0,0.0,0.0
123,0.0,0.0,0.48435160400300004,0.8748734329600001,0.0,0.0,0.0,0.0,0.0,0.0
124,0.0,0.0,0.484580628731,0.874746600027,0.0,0.0,0.011344640138,0.0,0.0,0.0
125,0.0,0.0,0.484885943368,0.874577396189,0.0,0.0,0.0,0.0,0.0,0.0
126,0.0,0.0,0.484656962927,0.874704309059,0.0,0.0,-0.0134390352404,0.0,0.0,0.0
127,0.0,0.0,0.484275255049,0.8749156972799998,0.0,0.0,-0.00593411945678,0.0,0.0,0.0
128,0.0,0.0,0.484504290844,0.8747888843330001,0.0,0.0,0.0150098315672,0.0,0.0,0.0
129,0.0,0.0,0.484656962927,0.874704309059,0.0,0.0,-0.00279252680319,0.0,0.0,0.0
130,0.0,0.0,0.48435160400300004,0.8748734329600001,0.0,0.0,-0.0038397243543899996,0.0,0.0,0.0
131,0.0,0.0,0.48435160400300004,0.8748734329600001,0.0,0.0,0.000174532925199,0.0,0.0,0.0
132,0.0,0.0,0.484427949268,0.8748311619779999,0.0,0.0,0.00558505360638,0.0,0.0,0.0
133,0.0,0.0,0.484427949268,0.8748311619779999,0.0,0.0,-0.00628318530718,0.0,0.0,0.0
134,0.0,0.0,0.483740709141,0.8752113609409999,0.0,0.0,-0.0144862327916,0.0,0.0,0.0
135,0.0,0.0,0.483893454972,0.8751269189299999,0.0,0.0,0.0198967534727,0.0,0.0,0.0
136,0.0,0.0,0.484275255049,0.8749156972799998,0.0,0.0,-0.00157079632679,0.0,0.0,0.0
137,0.0,0.0,0.484122546078,0.8750002059309999,0.0,0.0,-0.0167551608191,0.0,0.0,0.0
138,0.0,0.0,0.483893454972,0.8751269189299999,0.0,0.0,-0.00558505360638,0.0,0.0,0.0
139,0.0,0.0,0.48381708389899997,0.875169143268,0.0,0.0,-0.0012217304764,0.0,0.0,0.0
140,0.0,0.0,0.48396982236,0.875084687928,0.0,0.0,0.007679448708779999,0.0,0.0,0.0
141,0.0,0.0,0.48396982236,0.875084687928,0.0,0.0,-0.0102974425868,0.0,0.0,0.0
142,0.0,0.0,0.483893454972,0.8751269189299999,0.0,0.0,-0.0101229096616,0.0,0.0,0.0
143,0.0,0.0,0.48381708389899997,0.875169143268,0.0,0.0,-0.0101229096616,0.0,0.0,0.0
144,0.0,0.0,0.48358794857500004,0.875295776291,0.0,0.0,0.0,0.0,0.0,0.0
145,0.0,0.0,0.483740709141,0.8752113609409999,0.0,0.0,0.017278759594700002,0.0,0.0,0.0
146,0.0,0.0,0.48396982236,0.875084687928,0.0,0.0,-0.00244346095279,0.0,0.0,0.0
147,0.0,0.0,0.483740709141,0.8752113609409999,0.0,0.0,-0.0158824961931,0.0,0.0,0.0
148,0.0,0.0,0.4836643307,0.8752535719490001,0.0,0.0,0.007679448708779999,0.0,0.0,0.0
149,0.0,0.0,0.48396982236,0.875084687928,0.0,0.0,0.00174532925199,0.0,0.0,0.0
150,0.0,0.0,0.483740709141,0.8752113609409999,0.0,0.0,-0.0164060949687,0.0,0.0,0.0
151,0.0,0.0,0.483358780107,0.875422349323,0.0,0.0,-0.0012217304764,0.0,0.0,0.0
152,0.0,0.0,0.48358794857500004,0.875295776291,0.0,0.0,0.0176278254451,0.0,0.0,0.0
153,0.0,0.0,0.48381708389899997,0.875169143268,0.0,0.0,-0.00733038285838,0.0,0.0,0.0
154,0.0,0.0,0.4836643307,0.8752535719490001,0.0,0.0,-0.012042771838799999,0.0,0.0,0.0
155,0.0,0.0,0.483511562768,0.875337973968,0.0,0.0,0.00488692190558,0.0,0.0,0.0
156,0.0,0.0,0.48358794857500004,0.875295776291,0.0,0.0,0.007853981633970001,0.0,0.0,0.0
157,0.0,0.0,0.483893454972,0.8751269189299999,0.0,0.0,-0.000698131700798,0.0,0.0,0.0
158,0.0,0.0,0.48381708389899997,0.875169143268,0.0,0.0,-0.00523598775598,0.0,0.0,0.0
159,0.0,0.0,0.483435173278,0.875380164978,0.0,0.0,-0.0254818070791,0.0,0.0,0.0
160,0.0,0.0,0.48328238325499995,0.875464527,0.0,0.0,-0.0162315620435,0.0,0.0,0.0
161,0.0,0.0,0.483511562768,0.875337973968,0.0,0.0,0.0205948851735,0.0,0.0,0.0
162,0.0,0.0,0.4836643307,0.8752535719490001,0.0,0.0,0.013788101090799998,0.0,0.0,0.0
163,0.0,0.0,0.48381708389899997,0.875169143268,0.0,0.0,-0.000872664625997,0.0,0.0,0.0
164,0.0,0.0,0.483511562768,0.875337973968,0.0,0.0,-0.014660765716799999,0.0,0.0,0.0
165,0.0,0.0,0.483435173278,0.875380164978,0.0,0.0,-0.00715584993318,0.0,0.0,0.0
166,0.0,0.0,0.483511562768,0.875337973968,0.0,0.0,0.00279252680319,0.0,0.0,0.0
167,0.0,0.0,0.48358794857500004,0.875295776291,0.0,0.0,-0.00296705972839,0.0,0.0,0.0
168,0.0,0.0,0.4836643307,0.8752535719490001,0.0,0.0,0.00279252680319,0.0,0.0,0.0
169,0.0,0.0,0.483358780107,0.875422349323,0.0,0.0,-0.00314159265359,0.0,0.0,0.0
170,0.0,0.0,0.483358780107,0.875422349323,0.0,0.0,-0.00837758040957,0.0,0.0,0.0
171,0.0,0.0,0.483511562768,0.875337973968,0.0,0.0,0.00942477796077,0.0,0.0,0.0
172,0.0,0.0,0.48328238325499995,0.875464527,0.0,0.0,-0.0171042266695,0.0,0.0,0.0
173,0.0,0.0,0.48320598272200005,0.87550669801,0.0,0.0,-0.0050614548307799994,0.0,0.0,0.0
174,0.0,0.0,0.48328238325499995,0.875464527,0.0,0.0,0.007679448708779999,0.0,0.0,0.0
175,0.0,0.0,0.48320598272200005,0.87550669801,0.0,0.0,-0.0157079632679,0.0,0.0,0.0
176,0.0,0.0,0.48274750227200003,0.8757595840469999,0.0,0.0,-0.0005235987755980001,0.0,0.0,0.0
177,0.0,0.0,0.48282392487400005,0.875717453046,0.0,0.0,0.00715584993318,0.0,0.0,0.0
178,0.0,0.0,0.48312957851000005,0.8755488623540001,0.0,0.0,0.015358897417600001,0.0,0.0,0.0
179,0.0,0.0,0.483358780107,0.875422349323,0.0,0.0,0.0005235987755980001,0.0,0.0,0.0
180,0.0,0.0,0.48297675904799997,0.8756331710359999,0.0,0.0,-0.008028514559169999,0.0,0.0,0.0
181,0.0,0.0,0.48320598272200005,0.87550669801,0.0,0.0,0.0111701072128,0.0,0.0,0.0
182,0.0,0.0,0.48320598272200005,0.87550669801,0.0,0.0,0.000698131700798,0.0,0.0,0.0
183,0.0,0.0,0.483358780107,0.875422349323,0.0,0.0,-0.000174532925199,0.0,0.0,0.0
184,0.0,0.0,0.48328238325499995,0.875464527,0.0,0.0,-0.0115191730632,0.0,0.0,0.0
185,0.0,0.0,0.48274750227200003,0.8757595840469999,0.0,0.0,-0.00453785605519,0.0,0.0,0.0
186,0.0,0.0,0.48274750227200003,0.8757595840469999,0.0,0.0,0.000872664625997,0.0,0.0,0.0
187,0.0,0.0,0.4829003438,0.875675315375,0.0,0.0,0.00488692190558,0.0,0.0,0.0
188,0.0,0.0,0.4829003438,0.875675315375,0.0,0.0,-0.00558505360638,0.0,0.0,0.0
189,0.0,0.0,0.48267107599200004,0.875801708379,0.0,0.0,0.007853981633970001,0.0,0.0,0.0
190,0.0,0.0,0.48282392487400005,0.875717453046,0.0,0.0,0.007853981633970001,0.0,0.0,0.0
191,0.0,0.0,0.48282392487400005,0.875717453046,0.0,0.0,-0.00820304748437,0.0,0.0,0.0
192,0.0,0.0,0.482441775103,0.875928041357,0.0,0.0,-0.0165806278939,0.0,0.0,0.0
193,0.0,0.0,0.482518212408,0.8758859370350001,0.0,0.0,-0.000174532925199,0.0,0.0,0.0
194,0.0,0.0,0.482594646038,0.8758438260420001,0.0,0.0,0.00628318530718,0.0,0.0,0.0
195,0.0,0.0,0.482518212408,0.8758859370350001,0.0,0.0,-0.0134390352404,0.0,0.0,0.0
196,0.0,0.0,0.482365334125,0.8759701390090001,0.0,0.0,0.000174532925199,0.0,0.0,0.0
197,0.0,0.0,0.482288889473,0.87601222999,0.0,0.0,-0.00244346095279,0.0,0.0,0.0
198,0.0,0.0,0.482365334125,0.8759701390090001,0.0,0.0,0.00872664625997,0.0,0.0,0.0
199,0.0,0.0,0.482441775103,0.875928041357,0.0,0.0,-0.00837758040957,0.0,0.0,0.0
200,0.0,0.0,0.482288889473,0.87601222999,0.0,0.0,0.005410520681180001,0.0,0.0,0.0
201,0.0,0.0,0.482365334125,0.8759701390090001,0.0,0.0,0.00628318530718,0.0,0.0,0.0
202,0.0,0.0,0.482365334125,0.8759701390090001,0.0,0.0,-0.000698131700798,0.0,0.0,0.0
203,0.0,0.0,0.482441775103,0.875928041357,0.0,0.0,0.00680678408278,0.0,0.0,0.0
204,0.0,0.0,0.48205953348200004,0.876138462904,0.0,0.0,-0.026529004630299998,0.0,0.0,0.0
205,0.0,0.0,0.481983074142,0.876180527198,0.0,0.0,-0.0050614548307799994,0.0,0.0,0.0
206,0.0,0.0,0.48213598915100003,0.876096391937,0.0,0.0,-0.0033161255787899995,0.0,0.0,0.0
207,0.0,0.0,0.48213598915100003,0.876096391937,0.0,0.0,0.00157079632679,0.0,0.0,0.0
208,0.0,0.0,0.482212441148,0.876054314299,0.0,0.0,-0.0109955742876,0.0,0.0,0.0
209,0.0,0.0,0.481753674102,0.876306680044,0.0,0.0,-0.00471238898038,0.0,0.0,0.0
210,0.0,0.0,0.481906611132,0.8762225848190001,0.0,0.0,-0.00558505360638,0.0,0.0,0.0
211,0.0,0.0,0.481983074142,0.876180527198,0.0,0.0,0.009250245035569999,0.0,0.0,0.0
212,0.0,0.0,0.48160072239699997,0.876390748574,0.0,0.0,-0.00994837673637,0.0,0.0,0.0
213,0.0,0.0,0.481983074142,0.876180527198,0.0,0.0,0.0162315620435,0.0,0.0,0.0
214,0.0,0.0,0.48183014445100003,0.8762646357680001,0.0,0.0,-0.00244346095279,0.0,0.0,0.0
215,0.0,0.0,0.48167720008299997,0.876348717646,0.0,0.0,-0.0202458193231,0.0,0.0,0.0
216,0.0,0.0,0.481753674102,0.876306680044,0.0,0.0,0.0256563400043,0.0,0.0,0.0
217,0.0,0.0,0.48183014445100003,0.8762646357680001,0.0,0.0,-0.009599310885969999,0.0,0.0,0.0
218,0.0,0.0,0.48160072239699997,0.876390748574,0.0,0.0,-0.0214675497995,0.0,0.0,0.0
219,0.0,0.0,0.48129477498,0.876558805544,0.0,0.0,0.0115191730632,0.0,0.0,0.0
220,0.0,0.0,0.481447756021,0.8764747904090001,0.0,0.0,-0.00820304748437,0.0,0.0,0.0
221,0.0,0.0,0.48137126733400004,0.876516801314,0.0,0.0,-0.00820304748437,0.0,0.0,0.0
222,0.0,0.0,0.48098876891900005,0.8767267557080001,0.0,0.0,-0.020071286397900002,0.0,0.0,0.0
223,0.0,0.0,0.480759225911,0.8768526482260001,0.0,0.0,0.0171042266695,0.0,0.0,0.0
224,0.0,0.0,0.480912258245,0.876768726558,0.0,0.0,0.0204203522483,0.0,0.0,0.0
225,0.0,0.0,0.48098876891900005,0.8767267557080001,0.0,0.0,-0.007679448708779999,0.0,0.0,0.0
226,0.0,0.0,0.480682704252,0.8768945990449999,0.0,0.0,-0.0198967534727,0.0,0.0,0.0
227,0.0,0.0,0.480453117312,0.8770204114299999,0.0,0.0,-0.022863813201099998,0.0,0.0,0.0
228,0.0,0.0,0.480835743909,0.876810690731,0.0,0.0,0.027925268031900003,0.0,0.0,0.0
229,0.0,0.0,0.48098876891900005,0.8767267557080001,0.0,0.0,0.0193731546971,0.0,0.0,0.0
230,0.0,0.0,0.480835743909,0.876810690731,0.0,0.0,-0.026529004630299998,0.0,0.0,0.0
231,0.0,0.0,0.480070399244,0.877229965157,0.0,0.0,-0.023561944901900004,0.0,0.0,0.0
232,0.0,0.0,0.480300041057,0.87710425296,0.0,0.0,0.0237364778271,0.0,0.0,0.0
233,0.0,0.0,0.480529649952,0.8769784806470001,0.0,0.0,-0.00715584993318,0.0,0.0,0.0
234,0.0,0.0,0.479917286421,0.877313739887,0.0,0.0,-0.022165681500300002,0.0,0.0,0.0
235,0.0,0.0,0.47999384466000006,0.877271855862,0.0,0.0,0.0310668606855,0.0,0.0,0.0
236,0.0,0.0,0.480606178932,0.876936543185,0.0,0.0,0.008028514559169999,0.0,0.0,0.0
237,0.0,0.0,0.479917286421,0.877313739887,0.0,0.0,-0.0300196631343,0.0,0.0,0.0
238,0.0,0.0,0.479611016922,0.87748120917,0.0,0.0,0.010821041362399999,0.0,0.0,0.0
239,0.0,0.0,0.47984072452699994,0.8773556172299999,0.0,0.0,0.0232128790515,0.0,0.0,0.0
240,0.0,0.0,0.480070399244,0.877229965157,0.0,0.0,-0.006632251157579999,0.0,0.0,0.0
241,0.0,0.0,0.479457860256,0.8775649037190001,0.0,0.0,-0.0214675497995,0.0,0.0,0.0
242,0.0,0.0,0.479304688984,0.8776485715350001,0.0,0.0,-0.011868238913600001,0.0,0.0,0.0
243,0.0,0.0,0.479611016922,0.87748120917,0.0,0.0,0.0214675497995,0.0,0.0,0.0
244,0.0,0.0,0.47999384466000006,0.877271855862,0.0,0.0,-0.008901179185170001,0.0,0.0,0.0
245,0.0,0.0,0.47984072452699994,0.8773556172299999,0.0,0.0,-0.025830872929500003,0.0,0.0,0.0
246,0.0,0.0,0.47922809787299997,0.8776903954180001,0.0,0.0,-0.0102974425868,0.0,0.0,0.0
247,0.0,0.0,0.47922809787299997,0.8776903954180001,0.0,0.0,0.00488692190558,0.0,0.0,0.0
248,0.0,0.0,0.47953444041500004,0.877523059786,0.0,0.0,0.0127409035396,0.0,0.0,0.0
249,0.0,0.0,0.479611016922,0.87748120917,0.0,0.0,0.007679448708779999,0.0,0.0,0.0
250,0.0,0.0,0.47922809787299997,0.8776903954180001,0.0,0.0,-0.0219911485751,0.0,0.0,0.0
251,0.0,0.0,0.47907490470299996,0.877774023131,0.0,0.0,-0.014660765716799999,0.0,0.0,0.0
252,0.0,0.0,0.479304688984,0.8776485715350001,0.0,0.0,0.0111701072128,0.0,0.0,0.0
253,0.0,0.0,0.47968758977700005,0.877439351872,0.0,0.0,0.0164060949687,0.0,0.0,0.0
254,0.0,0.0,0.47907490470299996,0.877774023131,0.0,0.0,-0.0256563400043,0.0,0.0,0.0
255,0.0,0.0,0.478845087586,0.877899414566,0.0,0.0,-0.0038397243543899996,0.0,0.0,0.0
256,0.0,0.0,0.479151503112,0.8777322126170001,0.0,0.0,0.0132645023152,0.0,0.0,0.0
257,0.0,0.0,0.478998302645,0.8778158269609999,0.0,0.0,-0.0239110107523,0.0,0.0,0.0
258,0.0,0.0,0.478691857941,0.877982975428,0.0,0.0,0.0034906585039899997,0.0,0.0,0.0
259,0.0,0.0,0.479151503112,0.8777322126170001,0.0,0.0,0.03403392041390001,0.0,0.0,0.0
260,0.0,0.0,0.47922809787299997,0.8776903954180001,0.0,0.0,-0.023561944901900004,0.0,0.0,0.0
261,0.0,0.0,0.478615237649,0.8780247458299999,0.0,0.0,-0.017453292519900004,0.0,0.0,0.0
262,0.0,0.0,0.478691857941,0.877982975428,0.0,0.0,0.0319395253115,0.0,0.0,0.0
263,0.0,0.0,0.47922809787299997,0.8776903954180001,0.0,0.0,0.0020943951023900003,0.0,0.0,0.0
264,0.0,0.0,0.478385354909,0.8781500169149999,0.0,0.0,-0.029670597283900004,0.0,0.0,0.0
265,0.0,0.0,0.478232081533,0.878233497535,0.0,0.0,-0.017453292519900004,0.0,0.0,0.0
266,0.0,0.0,0.478232081533,0.878233497535,0.0,0.0,0.0312413936107,0.0,0.0,0.0
267,0.0,0.0,0.478998302645,0.8778158269609999,0.0,0.0,-0.0115191730632,0.0,0.0,0.0
268,0.0,0.0,0.47876847458599997,0.87794119834,0.0,0.0,-0.0328121899375,0.0,0.0,0.0
269,0.0,0.0,0.478002144155,0.878358668303,0.0,0.0,-0.0261799387799,0.0,0.0,0.0
270,0.0,0.0,0.477772174015,0.8784837788700001,0.0,0.0,-0.007679448708779999,0.0,0.0,0.0
271,0.0,0.0,0.47853861371399997,0.8780665095450001,0.0,0.0,0.0383972435439,0.0,0.0,0.0
272,0.0,0.0,0.478691857941,0.877982975428,0.0,0.0,0.0183259571459,0.0,0.0,0.0
273,0.0,0.0,0.47792549108099996,0.8784003785150001,0.0,0.0,-0.039618974020300006,0.0,0.0,0.0
274,0.0,0.0,0.477695510024,0.878525469012,0.0,0.0,-0.022165681500300002,0.0,0.0,0.0
275,0.0,0.0,0.477618842395,0.878567152464,0.0,0.0,0.0275762021815,0.0,0.0,0.0
276,0.0,0.0,0.47876847458599997,0.87794119834,0.0,0.0,0.0165806278939,0.0,0.0,0.0
277,0.0,0.0,0.478691857941,0.877982975428,0.0,0.0,-0.0178023583703,0.0,0.0,0.0
278,0.0,0.0,0.47731213551299995,0.878733819363,0.0,0.0,-0.0244346095279,0.0,0.0,0.0
279,0.0,0.0,0.47715876026,0.878817112662,0.0,0.0,-0.0188495559215,0.0,0.0,0.0
280,0.0,0.0,0.477772174015,0.8784837788700001,0.0,0.0,0.046076692252699995,0.0,0.0,0.0
281,0.0,0.0,0.477695510024,0.878525469012,0.0,0.0,-0.03525565089030001,0.0,0.0,0.0
282,0.0,0.0,0.47677525854599995,0.879025228784,0.0,0.0,-0.0291469985083,0.0,0.0,0.0
283,0.0,0.0,0.47731213551299995,0.878733819363,0.0,0.0,0.0535816080362,0.0,0.0,0.0
284,0.0,0.0,0.47807879358800004,0.878316951403,0.0,0.0,-0.009599310885969999,0.0,0.0,0.0
285,0.0,0.0,0.476621832441,0.879108428375,0.0,0.0,-0.0406661715715,0.0,0.0,0.0
286,0.0,0.0,0.476468391817,0.879191601188,0.0,0.0,0.0244346095279,0.0,0.0,0.0
287,0.0,0.0,0.477618842395,0.878567152464,0.0,0.0,0.000698131700798,0.0,0.0,0.0
288,0.0,0.0,0.476621832441,0.879108428375,0.0,0.0,-0.047996554429800005,0.0,0.0,0.0
289,0.0,0.0,0.47616146703100004,0.8793578664659999,0.0,0.0,-0.03403392041390001,0.0,0.0,0.0
290,0.0,0.0,0.47669854730899996,0.879066831927,0.0,0.0,0.0610865238198,0.0,0.0,0.0
291,0.0,0.0,0.477465496226,0.878650499296,0.0,0.0,-0.0301941960595,0.0,0.0,0.0
292,0.0,0.0,0.477005370471,0.8789003791910001,0.0,0.0,-0.066497044501,0.0,0.0,0.0
293,0.0,0.0,0.47577772946400004,0.879565547385,0.0,0.0,-0.0373500459927,0.0,0.0,0.0
294,0.0,0.0,0.476238203668,0.879316310191,0.0,0.0,0.0596902604182,0.0,0.0,0.0
295,0.0,0.0,0.47677525854599995,0.879025228784,0.0,0.0,0.06143558967019999,0.0,0.0,0.0
296,0.0,0.0,0.476545113943,0.8791500181290001,0.0,0.0,-0.05934119456780001,0.0,0.0,0.0
297,0.0,0.0,0.47570097107799997,0.879607063475,0.0,0.0,-0.07260569688299999,0.0,0.0,0.0
298,0.0,0.0,0.475317124823,0.879814543441,0.0,0.0,0.024783675378299997,0.0,0.0,0.0
299,0.0,0.0,0.47570097107799997,0.879607063475,0.0,0.0,0.0548033385126,0.0,0.0,0.0
300,0.0,0.0,0.47669854730899996,0.879066831927,0.0,0.0,-0.0242600766027,0.0,0.0,0.0
301,0.0,0.0,0.476238203668,0.879316310191,0.0,0.0,-0.061784655520599994,0.0,0.0,0.0
302,0.0,0.0,0.47477958805200005,0.880104733977,0.0,0.0,-0.0280998009571,0.0,0.0,0.0
303,0.0,0.0,0.47562420906999997,0.8796485728669999,0.0,0.0,0.0720820981074,0.0,0.0,0.0
304,0.0,0.0,0.47608472676700003,0.879399416044,0.0,0.0,-0.0486946861306,0.0,0.0,0.0
305,0.0,0.0,0.474702782617,0.880146162961,0.0,0.0,-0.0539306738866,0.0,0.0,0.0
306,0.0,0.0,0.475163560978,0.879897488528,0.0,0.0,0.069115038379,0.0,0.0,0.0
307,0.0,0.0,0.476238203668,0.879316310191,0.0,0.0,0.009599310885969999,0.0,0.0,0.0
308,0.0,0.0,0.474702782617,0.880146162961,0.0,0.0,-0.05707226654019999,0.0,0.0,0.0
309,0.0,0.0,0.474241874114,0.880394596097,0.0,0.0,0.029496064358700003,0.0,0.0,0.0
310,0.0,0.0,0.47570097107799997,0.879607063475,0.0,0.0,0.014311699866400001,0.0,0.0,0.0
311,0.0,0.0,0.474395524734,0.880311811867,0.0,0.0,-0.07260569688299999,0.0,0.0,0.0
312,0.0,0.0,0.473857684371,0.880601439337,0.0,0.0,0.0415388361975,0.0,0.0,0.0
313,0.0,0.0,0.47524034471,0.879856019335,0.0,0.0,0.039618974020300006,0.0,0.0,0.0
314,0.0,0.0,0.474165043386,0.8804359781559999,0.0,0.0,-0.07557275661139999,0.0,0.0,0.0
315,0.0,0.0,0.47362712721699995,0.88072546481,0.0,0.0,-0.0645771823238,0.0,0.0,0.0
316,0.0,0.0,0.473550267618,0.8807667932200001,0.0,0.0,0.0581194640914,0.0,0.0,0.0
317,0.0,0.0,0.475163560978,0.879897488528,0.0,0.0,0.0144862327916,0.0,0.0,0.0
318,0.0,0.0,0.474933188073,0.880021855903,0.0,0.0,-0.0375245789179,0.0,0.0,0.0
319,0.0,0.0,0.473089034311,0.881014622815,0.0,0.0,-0.06928957130419999,0.0,0.0,0.0
320,0.0,0.0,0.473550267618,0.8807667932200001,0.0,0.0,0.0790634151153,0.0,0.0,0.0
321,0.0,0.0,0.474165043386,0.8804359781559999,0.0,0.0,0.0731292956586,0.0,0.0,0.0
322,0.0,0.0,0.474856389871,0.8800632982909999,0.0,0.0,-0.042411500823499995,0.0,0.0,0.0
323,0.0,0.0,0.472473854835,0.881344686543,0.0,0.0,-0.0898844564777,0.0,0.0,0.0
324,0.0,0.0,0.472089250705,0.881550758248,0.0,0.0,-0.0305432619099,0.0,0.0,0.0
325,0.0,0.0,0.47347340441200003,0.880808114923,0.0,0.0,0.0591666616426,0.0,0.0,0.0
326,0.0,0.0,0.473857684371,0.880601439337,0.0,0.0,0.0390953752447,0.0,0.0,0.0
327,0.0,0.0,0.472781473377,0.8811797083640001,0.0,0.0,-0.0753982236862,0.0,0.0,0.0
328,0.0,0.0,0.472320023973,0.881427135363,0.0,0.0,0.042411500823499995,0.0,0.0,0.0
329,0.0,0.0,0.473703983209,0.880684129692,0.0,0.0,0.0317649923863,0.0,0.0,0.0
330,0.0,0.0,0.473319667185,0.880890738205,0.0,0.0,-0.0607374579694,0.0,0.0,0.0
331,0.0,0.0,0.47185844508100006,0.881674320714,0.0,0.0,0.0033161255787899995,0.0,0.0,0.0
332,0.0,0.0,0.47316591553900006,0.880973334654,0.0,0.0,0.054279739737,0.0,0.0,0.0
333,0.0,0.0,0.473089034311,0.881014622815,0.0,0.0,-0.0548033385126,0.0,0.0,0.0
334,0.0,0.0,0.47170455669699995,0.881756662119,0.0,0.0,-0.0239110107523,0.0,0.0,0.0
335,0.0,0.0,0.47270457413999994,0.881220962975,0.0,0.0,0.0546288055874,0.0,0.0,0.0
336,0.0,0.0,0.473396537601,0.880849429918,0.0,0.0,-0.0207694180987,0.0,0.0,0.0
337,0.0,0.0,0.471550653943,0.881838976665,0.0,0.0,-0.05270894341019999,0.0,0.0,0.0
338,0.0,0.0,0.472012319092,0.8815919524510001,0.0,0.0,0.0600393262686,0.0,0.0,0.0
339,0.0,0.0,0.473089034311,0.881014622815,0.0,0.0,-0.00977384381117,0.0,0.0,0.0
340,0.0,0.0,0.47270457413999994,0.881220962975,0.0,0.0,-0.047298422729,0.0,0.0,0.0
341,0.0,0.0,0.471319772882,0.881962398116,0.0,0.0,-0.0328121899375,0.0,0.0,0.0
342,0.0,0.0,0.472320023973,0.881427135363,0.0,0.0,0.06579891280019999,0.0,0.0,0.0
343,0.0,0.0,0.47285836901199996,0.881138447042,0.0,0.0,0.0675442420522,0.0,0.0,0.0
344,0.0,0.0,0.472935261047,0.8810971790090001,0.0,0.0,-0.0631809189222,0.0,0.0,0.0
345,0.0,0.0,0.47185844508100006,0.881674320714,0.0,0.0,-0.0862192650485,0.0,0.0,0.0
346,0.0,0.0,0.47124280534900004,0.882003525167,0.0,0.0,0.022340214425499997,0.0,0.0,0.0
347,0.0,0.0,0.47170455669699995,0.881756662119,0.0,0.0,0.0631809189222,0.0,0.0,0.0
348,0.0,0.0,0.47285836901199996,0.881138447042,0.0,0.0,-0.0167551608191,0.0,0.0,0.0
349,0.0,0.0,0.472473854835,0.881344686543,0.0,0.0,-0.0528834763354,0.0,0.0,0.0
350,0.0,0.0,0.470934899335,0.8821679661990001,0.0,0.0,-0.0195476876223,0.0,0.0,0.0
351,0.0,0.0,0.472012319092,0.8815919524510001,0.0,0.0,0.0764454212374,0.0,0.0,0.0
352,0.0,0.0,0.472550764869,0.8813034520649999,0.0,0.0,0.06946410422939998,0.0,0.0,0.0
353,0.0,0.0,0.472243103147,0.881468349704,0.0,0.0,-0.0762708883122,0.0,0.0,0.0
354,0.0,0.0,0.471627607116,0.8817978227500001,0.0,0.0,-0.0766199541626,0.0,0.0,0.0
355,0.0,0.0,0.471011881219,0.8821268660179999,0.0,0.0,0.0195476876223,0.0,0.0,0.0
356,0.0,0.0,0.47285836901199996,0.881138447042,0.0,0.0,0.046425758103,0.0,0.0,0.0
357,0.0,0.0,0.472089250705,0.881550758248,0.0,0.0,-0.07138396640660001,0.0,0.0,0.0
358,0.0,0.0,0.470934899335,0.8821679661990001,0.0,0.0,0.00820304748437,0.0,0.0,0.0
359,0.0,0.0,0.472473854835,0.881344686543,0.0,0.0,0.0642281164734,0.0,0.0,0.0
360,0.0,0.0,0.472243103147,0.881468349704,0.0,0.0,-0.07120943348139999,0.0,0.0,0.0
361,0.0,0.0,0.470703932165,0.882291226435,0.0,0.0,-0.03473205211469999,0.0,0.0,0.0
362,0.0,0.0,0.472243103147,0.881468349704,0.0,0.0,0.08395033702089999,0.0,0.0,0.0
363,0.0,0.0,0.472473854835,0.881344686543,0.0,0.0,-0.0493928178314,0.0,0.0,0.0
364,0.0,0.0,0.471550653943,0.881838976665,0.0,0.0,-0.0832522053201,0.0,0.0,0.0
365,0.0,0.0,0.47047293273400004,0.882414426199,0.0,0.0,0.0219911485751,0.0,0.0,0.0
366,0.0,0.0,0.472550764869,0.8813034520649999,0.0,0.0,0.0651007810994,0.0,0.0,0.0
367,0.0,0.0,0.47285836901199996,0.881138447042,0.0,0.0,0.023387411976700002,0.0,0.0,0.0
368,0.0,0.0,0.471319772882,0.881962398116,0.0,0.0,-0.0984365698125,0.0,0.0,0.0
369,0.0,0.0,0.470626935939,0.882332299742,0.0,0.0,-0.0766199541626,0.0,0.0,0.0
370,0.0,0.0,0.471319772882,0.881962398116,0.0,0.0,0.0895353906273,0.0,0.0,0.0
371,0.0,0.0,0.472012319092,0.8815919524510001,0.0,0.0,0.07766715171369999,0.0,0.0,0.0
372,0.0,0.0,0.47170455669699995,0.881756662119,0.0,0.0,-0.0813323431429,0.0,0.0,0.0
373,0.0,0.0,0.46993380868900003,0.882701657102,0.0,0.0,-0.036826447217099996,0.0,0.0,0.0
374,0.0,0.0,0.470010837151,0.8826606442799999,0.0,0.0,0.03403392041390001,0.0,0.0,0.0
375,0.0,0.0,0.472166178724,0.881509557333,0.0,0.0,0.0535816080362,0.0,0.0,0.0
376,0.0,0.0,0.472320023973,0.881427135363,0.0,0.0,0.012042771838799999,0.0,0.0,0.0
377,0.0,0.0,0.470395925757,0.882455479348,0.0,0.0,-0.0933751149817,0.0,0.0,0.0
378,0.0,0.0,0.470164883336,0.88257859847,0.0,0.0,0.056897733614999994,0.0,0.0,0.0
379,0.0,0.0,0.471935383883,0.881633139939,0.0,0.0,0.015358897417600001,0.0,0.0,0.0
380,0.0,0.0,0.470626935939,0.882332299742,0.0,0.0,-0.08237954069410001,0.0,0.0,0.0
381,0.0,0.0,0.470164883336,0.88257859847,0.0,0.0,0.059515727493,0.0,0.0,0.0
382,0.0,0.0,0.471627607116,0.8817978227500001,0.0,0.0,0.042236967898300004,0.0,0.0,0.0
383,0.0,0.0,0.470395925757,0.882455479348,0.0,0.0,-0.08447393579649999,0.0,0.0,0.0
384,0.0,0.0,0.469702701834,0.8828246552339999,0.0,0.0,0.034906585039900004,0.0,0.0,0.0
385,0.0,0.0,0.471550653943,0.881838976665,0.0,0.0,0.0546288055874,0.0,0.0,0.0
386,0.0,0.0,0.470857913864,0.882209059663,0.0,0.0,-0.0935496479069,0.0,0.0,0.0
387,0.0,0.0,0.469702701834,0.8828246552339999,0.0,0.0,0.0287979326579,0.0,0.0,0.0
388,0.0,0.0,0.470087862033,0.882619624736,0.0,0.0,0.0523598775598,0.0,0.0,0.0
389,0.0,0.0,0.47147369718000004,0.881880123865,0.0,0.0,0.0315904594611,0.0,0.0,0.0
390,0.0,0.0,0.46977974103,0.8827836625799999,0.0,0.0,-0.08674286382410001,0.0,0.0,0.0
391,0.0,0.0,0.46931745221,0.8830295176559999,0.0,0.0,-0.04084070449669999,0.0,0.0,0.0
392,0.0,0.0,0.47024190105700003,0.882537565484,0.0,0.0,0.0635299847726,0.0,0.0,0.0
393,0.0,0.0,0.47116583422700004,0.882044645501,0.0,0.0,-0.029496064358700003,0.0,0.0,0.0
394,0.0,0.0,0.470703932165,0.882291226435,0.0,0.0,-0.0666715774262,0.0,0.0,0.0
395,0.0,0.0,0.470087862033,0.882619624736,0.0,0.0,-0.07958701389089999,0.0,0.0,0.0
396,0.0,0.0,0.469394509285,0.882988558619,0.0,0.0,0.027227136331099997,0.0,0.0,0.0
397,0.0,0.0,0.470703932165,0.882291226435,0.0,0.0,0.047996554429800005,0.0,0.0,0.0
398,0.0,0.0,0.471011881219,0.8821268660179999,0.0,0.0,0.0373500459927,0.0,0.0,0.0
399,0.0,0.0,0.470010837151,0.8826606442799999,0.0,0.0,-0.0774926187885,0.0,0.0,0.0
400,0.0,0.0,0.469394509285,0.882988558619,0.0,0.0,-0.0637045176978,0.0,0.0,0.0
401,0.0,0.0,0.470164883336,0.88257859847,0.0,0.0,0.0644026493986,0.0,0.0,0.0
402,0.0,0.0,0.471011881219,0.8821268660179999,0.0,0.0,-0.00244346095279,0.0,0.0,0.0
403,0.0,0.0,0.46931745221,0.8830295176559999,0.0,0.0,-0.0628318530718,0.0,0.0,0.0
404,0.0,0.0,0.46977974103,0.8827836625799999,0.0,0.0,0.0502654824574,0.0,0.0,0.0
405,0.0,0.0,0.470857913864,0.882209059663,0.0,0.0,0.00244346095279,0.0,0.0,0.0
406,0.0,0.0,0.469471562786,0.8829475928589999,0.0,0.0,-0.074351026135,0.0,0.0,0.0
407,0.0,0.0,0.46962565906099996,0.8828656411660001,0.0,0.0,0.0466002910282,0.0,0.0,0.0
408,0.0,0.0,0.470703932165,0.882291226435,0.0,0.0,0.03403392041390001,0.0,0.0,0.0
409,0.0,0.0,0.46962565906099996,0.8828656411660001,0.0,0.0,-0.07365289443419999,0.0,0.0,0.0
410,0.0,0.0,0.46916332733800004,0.883111415554,0.0,0.0,-0.047996554429800005,0.0,0.0,0.0
411,0.0,0.0,0.469702701834,0.8828246552339999,0.0,0.0,0.0486946861306,0.0,0.0,0.0
412,0.0,0.0,0.470857913864,0.882209059663,0.0,0.0,0.0157079632679,0.0,0.0,0.0
413,0.0,0.0,0.470780924807,0.882250146408,0.0,0.0,-0.023387411976700002,0.0,0.0,0.0
414,0.0,0.0,0.469009188174,0.883193286551,0.0,0.0,-0.060388392119,0.0,0.0,0.0
415,0.0,0.0,0.468932113235,0.8832342119600001,0.0,0.0,0.0181514242207,0.0,0.0,0.0
416,0.0,0.0,0.470318915198,0.882496525776,0.0,0.0,0.0572467994654,0.0,0.0,0.0
417,0.0,0.0,0.470626935939,0.882332299742,0.0,0.0,0.0345575191895,0.0,0.0,0.0
418,0.0,0.0,0.469548612711,0.882906620374,0.0,0.0,-0.065624379875,0.0,0.0,0.0
419,0.0,0.0,0.46916332733800004,0.883111415554,0.0,0.0,-0.0406661715715,0.0,0.0,0.0
420,0.0,0.0,0.46977974103,0.8827836625799999,0.0,0.0,0.0633554518474,0.0,0.0,0.0
421,0.0,0.0,0.470780924807,0.882250146408,0.0,0.0,-0.00680678408278,0.0,0.0,0.0
422,0.0,0.0,0.469471562786,0.8829475928589999,0.0,0.0,-0.0616101225954,0.0,0.0,0.0
423,0.0,0.0,0.46977974103,0.8827836625799999,0.0,0.0,0.0598647933434,0.0,0.0,0.0
424,0.0,0.0,0.470780924807,0.882250146408,0.0,0.0,0.0038397243543899996,0.0,0.0,0.0
425,0.0,0.0,0.469471562786,0.8829475928589999,0.0,0.0,-0.06946410422939998,0.0,0.0,0.0
426,0.0,0.0,0.46931745221,0.8830295176559999,0.0,0.0,0.054105206811800005,0.0,0.0,0.0
427,0.0,0.0,0.470780924807,0.882250146408,0.0,0.0,0.0383972435439,0.0,0.0,0.0
428,0.0,0.0,0.46962565906099996,0.8828656411660001,0.0,0.0,-0.0818559419185,0.0,0.0,0.0
429,0.0,0.0,0.469009188174,0.883193286551,0.0,0.0,0.0287979326579,0.0,0.0,0.0
430,0.0,0.0,0.470626935939,0.882332299742,0.0,0.0,0.0392699081699,0.0,0.0,0.0
431,0.0,0.0,0.46993380868900003,0.882701657102,0.0,0.0,-0.0724311639578,0.0,0.0,0.0
432,0.0,0.0,0.46877795264300004,0.883316042601,0.0,0.0,0.0312413936107,0.0,0.0,0.0
433,0.0,0.0,0.46924039156099995,0.883070469967,0.0,0.0,0.0689405054538,0.0,0.0,0.0
434,0.0,0.0,0.470780924807,0.882250146408,0.0,0.0,0.0418879020479,0.0,0.0,0.0
435,0.0,0.0,0.470857913864,0.882209059663,0.0,0.0,0.00558505360638,0.0,0.0,0.0
436,0.0,0.0,0.46862377777099995,0.883397846334,0.0,0.0,-0.08744099552489999,0.0,0.0,0.0
437,0.0,0.0,0.46831538520599997,0.883561373069,0.0,0.0,-0.0287979326579,0.0,0.0,0.0
438,0.0,0.0,0.46993380868900003,0.882701657102,0.0,0.0,0.0731292956586,0.0,0.0,0.0
439,0.0,0.0,0.470010837151,0.8826606442799999,0.0,0.0,-0.0513126800086,0.0,0.0,0.0
440,0.0,0.0,0.469394509285,0.882988558619,0.0,0.0,-0.0809832772925,0.0,0.0,0.0
441,0.0,0.0,0.468546684981,0.8834387381100001,0.0,0.0,0.0434586983747,0.0,0.0,0.0
442,0.0,0.0,0.469009188174,0.883193286551,0.0,0.0,0.066497044501,0.0,0.0,0.0
443,0.0,0.0,0.470626935939,0.882332299742,0.0,0.0,0.0382227106187,0.0,0.0,0.0
444,0.0,0.0,0.469009188174,0.883193286551,0.0,0.0,-0.10035643199,0.0,0.0,0.0
445,0.0,0.0,0.468546684981,0.8834387381100001,0.0,0.0,0.046425758103,0.0,0.0,0.0
446,0.0,0.0,0.470395925757,0.882455479348,0.0,0.0,0.04485496177630001,0.0,0.0,0.0
447,0.0,0.0,0.46962565906099996,0.8828656411660001,0.0,0.0,-0.0837758040957,0.0,0.0,0.0
448,0.0,0.0,0.468546684981,0.8834387381100001,0.0,0.0,0.0371755130675,0.0,0.0,0.0
449,0.0,0.0,0.470087862033,0.882619624736,0.0,0.0,0.0640535835482,0.0,0.0,0.0
450,0.0,0.0,0.46977974103,0.8827836625799999,0.0,0.0,-0.09075712110369999,0.0,0.0,0.0
451,0.0,0.0,0.468469588624,0.883479623158,0.0,0.0,0.0216420827247,0.0,0.0,0.0
452,0.0,0.0,0.47024190105700003,0.882537565484,0.0,0.0,0.075223690761,0.0,0.0,0.0
453,0.0,0.0,0.46977974103,0.8827836625799999,0.0,0.0,-0.08237954069410001,0.0,0.0,0.0
454,0.0,0.0,0.468469588624,0.883479623158,0.0,0.0,0.0033161255787899995,0.0,0.0,0.0
455,0.0,0.0,0.470087862033,0.882619624736,0.0,0.0,0.064751715249,0.0,0.0,0.0
456,0.0,0.0,0.47047293273400004,0.882414426199,0.0,0.0,0.046251225177800004,0.0,0.0,0.0
457,0.0,0.0,0.469548612711,0.882906620374,0.0,0.0,-0.0993092344385,0.0,0.0,0.0
458,0.0,0.0,0.46877795264300004,0.883316042601,0.0,0.0,-0.0809832772925,0.0,0.0,0.0
459,0.0,0.0,0.469086259542,0.883152354415,0.0,0.0,0.0666715774262,0.0,0.0,0.0
460,0.0,0.0,0.469702701834,0.8828246552339999,0.0,0.0,0.0762708883122,0.0,0.0,0.0
461,0.0,0.0,0.470087862033,0.882619624736,0.0,0.0,-0.057770398241,0.0,0.0,0.0
462,0.0,0.0,0.468392488698,0.883520501477,0.0,0.0,-0.029496064358700003,0.0,0.0,0.0
463,0.0,0.0,0.468469588624,0.883479623158,0.0,0.0,0.022165681500300002,0.0,0.0,0.0
464,0.0,0.0,0.470164883336,0.88257859847,0.0,0.0,0.059515727493,0.0,0.0,0.0
465,0.0,0.0,0.47047293273400004,0.882414426199,0.0,0.0,0.0300196631343,0.0,0.0,0.0
466,0.0,0.0,0.46924039156099995,0.883070469967,0.0,0.0,-0.08412486994610001,0.0,0.0,0.0
467,0.0,0.0,0.468932113235,0.8832342119600001,0.0,0.0,0.042236967898300004,0.0,0.0,0.0
468,0.0,0.0,0.47024190105700003,0.882537565484,0.0,0.0,0.0434586983747,0.0,0.0,0.0
469,0.0,0.0,0.46916332733800004,0.883111415554,0.0,0.0,-0.0706858347058,0.0,0.0,0.0
470,0.0,0.0,0.46885503472400003,0.883275130644,0.0,0.0,0.0338593874887,0.0,0.0,0.0
471,0.0,0.0,0.47024190105700003,0.882537565484,0.0,0.0,0.0219911485751,0.0,0.0,0.0
472,0.0,0.0,0.46931745221,0.8830295176559999,0.0,0.0,-0.07731808586330001,0.0,0.0,0.0
473,0.0,0.0,0.468546684981,0.8834387381100001,0.0,0.0,-0.0488692190558,0.0,0.0,0.0
474,0.0,0.0,0.468932113235,0.8832342119600001,0.0,0.0,0.0528834763354,0.0,0.0,0.0
475,0.0,0.0,0.470010837151,0.8826606442799999,0.0,0.0,-0.011868238913600001,0.0,0.0,0.0
476,0.0,0.0,0.469548612711,0.882906620374,0.0,0.0,-0.061784655520599994,0.0,0.0,0.0
477,0.0,0.0,0.46831538520599997,0.883561373069,0.0,0.0,-0.0219911485751,0.0,0.0,0.0
478,0.0,0.0,0.469471562786,0.8829475928589999,0.0,0.0,0.0605629250442,0.0,0.0,0.0
479,0.0,0.0,0.46977974103,0.8827836625799999,0.0,0.0,0.0357792496659,0.0,0.0,0.0
480,0.0,0.0,0.46877795264300004,0.883316042601,0.0,0.0,-0.0651007810994,0.0,0.0,0.0
481,0.0,0.0,0.468392488698,0.883520501477,0.0,0.0,0.023387411976700002,0.0,0.0,0.0
482,0.0,0.0,0.46870086699100005,0.8833569478309999,0.0,0.0,0.0493928178314,0.0,0.0,0.0
483,0.0,0.0,0.469856776649,0.882742663202,0.0,0.0,-0.00715584993318,0.0,0.0,0.0
484,0.0,0.0,0.469548612711,0.882906620374,0.0,0.0,-0.045378560551899996,0.0,0.0,0.0
485,0.0,0.0,0.468238278148,0.883602237931,0.0,0.0,-0.0312413936107,0.0,0.0,0.0
486,0.0,0.0,0.469086259542,0.883152354415,0.0,0.0,0.045553093477099994,0.0,0.0,0.0
487,0.0,0.0,0.469471562786,0.8829475928589999,0.0,0.0,-0.017453292519900004,0.0,0.0,0.0
488,0.0,0.0,0.468084053333,0.883683947469,0.0,0.0,-0.0331612557879,0.0,0.0,0.0
489,0.0,0.0,0.46862377777099995,0.883397846334,0.0,0.0,0.049043751981,0.0,0.0,0.0
490,0.0,0.0,0.469394509285,0.882988558619,0.0,0.0,-0.00715584993318,0.0,0.0,0.0
491,0.0,0.0,0.468161167523,0.883643096065,0.0,0.0,-0.0624827872214,0.0,0.0,0.0
492,0.0,0.0,0.468469588624,0.883479623158,0.0,0.0,0.04502949470150001,0.0,0.0,0.0
493,0.0,0.0,0.469394509285,0.882988558619,0.0,0.0,0.023387411976700002,0.0,0.0,0.0
494,0.0,0.0,0.46924039156099995,0.883070469967,0.0,0.0,-0.0315904594611,0.0,0.0,0.0
495,0.0,0.0,0.46800693557899997,0.8837247921439999,0.0,0.0,-0.027925268031900003,0.0,0.0,0.0
496,0.0,0.0,0.469009188174,0.883193286551,0.0,0.0,0.0518362787842,0.0,0.0,0.0
497,0.0,0.0,0.469394509285,0.882988558619,0.0,0.0,0.042236967898300004,0.0,0.0,0.0
498,0.0,0.0,0.46916332733800004,0.883111415554,0.0,0.0,-0.0438077642251,0.0,0.0,0.0
499,0.0,0.0,0.468161167523,0.883643096065,0.0,0.0,0.00645771823238,0.0,0.0,0.0
500,0.0,0.0,0.468392488698,0.883520501477,0.0,0.0,0.041713369122699996,0.0,0.0,0.0
501,0.0,0.0,0.469548612711,0.882906620374,0.0,0.0,0.035081117965099995,0.0,0.0,0.0
502,0.0,0.0,0.469702701834,0.8828246552339999,0.0,0.0,-0.00418879020479,0.0,0.0,0.0
503,0.0,0.0,0.468469588624,0.883479623158,0.0,0.0,-0.0642281164734,0.0,0.0,0.0
504,0.0,0.0,0.468161167523,0.883643096065,0.0,0.0,-0.0319395253115,0.0,0.0,0.0
505,0.0,0.0,0.46924039156099995,0.883070469967,0.0,0.0,0.0539306738866,0.0,0.0,0.0
506,0.0,0.0,0.469548612711,0.882906620374,0.0,0.0,0.0322885911619,0.0,0.0,0.0
507,0.0,0.0,0.469009188174,0.883193286551,0.0,0.0,-0.050789081233,0.0,0.0,0.0
508,0.0,0.0,0.468392488698,0.883520501477,0.0,0.0,0.0237364778271,0.0,0.0,0.0
509,0.0,0.0,0.469702701834,0.8828246552339999,0.0,0.0,0.0188495559215,0.0,0.0,0.0
510,0.0,0.0,0.46924039156099995,0.883070469967,0.0,0.0,-0.0476474885794,0.0,0.0,0.0
511,0.0,0.0,0.468392488698,0.883520501477,0.0,0.0,0.0249582083035,0.0,0.0,0.0
512,0.0,0.0,0.469471562786,0.8829475928589999,0.0,0.0,0.035081117965099995,0.0,0.0,0.0
513,0.0,0.0,0.46916332733800004,0.883111415554,0.0,0.0,-0.0607374579694,0.0,0.0,0.0
514,0.0,0.0,0.468084053333,0.883683947469,0.0,0.0,0.00453785605519,0.0,0.0,0.0
515,0.0,0.0,0.469394509285,0.882988558619,0.0,0.0,0.042935099599099996,0.0,0.0,0.0
516,0.0,0.0,0.469548612711,0.882906620374,0.0,0.0,-0.023561944901900004,0.0,0.0,0.0
517,0.0,0.0,0.46800693557899997,0.8837247921439999,0.0,0.0,-0.0298451302091,0.0,0.0,0.0
518,0.0,0.0,0.468932113235,0.8832342119600001,0.0,0.0,0.0598647933434,0.0,0.0,0.0
519,0.0,0.0,0.469471562786,0.8829475928589999,0.0,0.0,-0.0321140582367,0.0,0.0,0.0
520,0.0,0.0,0.469009188174,0.883193286551,0.0,0.0,-0.064751715249,0.0,0.0,0.0
521,0.0,0.0,0.467775560934,0.8838472857870001,0.0,0.0,-0.0019198621771900001,0.0,0.0,0.0
522,0.0,0.0,0.469086259542,0.883152354415,0.0,0.0,0.049916416607,0.0,0.0,0.0
523,0.0,0.0,0.469394509285,0.882988558619,0.0,0.0,0.036302848441499995,0.0,0.0,0.0
524,0.0,0.0,0.46870086699100005,0.8833569478309999,0.0,0.0,-0.07958701389089999,0.0,0.0,0.0
525,0.0,0.0,0.467852689379,0.883806461303,0.0,0.0,-0.057944931166199996,0.0,0.0,0.0
526,0.0,0.0,0.468238278148,0.883602237931,0.0,0.0,0.0610865238198,0.0,0.0,0.0
527,0.0,0.0,0.46885503472400003,0.883275130644,0.0,0.0,0.0684169066782,0.0,0.0,0.0
528,0.0,0.0,0.46916332733800004,0.883111415554,0.0,0.0,-0.04921828490619999,0.0,0.0,0.0
529,0.0,0.0,0.468546684981,0.8834387381100001,0.0,0.0,-0.0825540736193,0.0,0.0,0.0
530,0.0,0.0,0.467852689379,0.883806461303,0.0,0.0,0.04136430327230001,0.0,0.0,0.0
531,0.0,0.0,0.46924039156099995,0.883070469967,0.0,0.0,0.0546288055874,0.0,0.0,0.0
532,0.0,0.0,0.46877795264300004,0.883316042601,0.0,0.0,-0.0774926187885,0.0,0.0,0.0
533,0.0,0.0,0.467775560934,0.8838472857870001,0.0,0.0,0.00610865238198,0.0,0.0,0.0
534,0.0,0.0,0.46931745221,0.8830295176559999,0.0,0.0,0.0466002910282,0.0,0.0,0.0
535,0.0,0.0,0.469394509285,0.882988558619,0.0,0.0,-0.0483456202802,0.0,0.0,0.0
536,0.0,0.0,0.467929814261,0.883765630089,0.0,0.0,0.00174532925199,0.0,0.0,0.0
537,0.0,0.0,0.469086259542,0.883152354415,0.0,0.0,0.0548033385126,0.0,0.0,0.0
538,0.0,0.0,0.469471562786,0.8829475928589999,0.0,0.0,-0.0523598775598,0.0,0.0,0.0
539,0.0,0.0,0.467929814261,0.883765630089,0.0,0.0,-0.0268780704807,0.0,0.0,0.0
540,0.0,0.0,0.46931745221,0.8830295176559999,0.0,0.0,0.07016223593019999,0.0,0.0,0.0
541,0.0,0.0,0.469702701834,0.8828246552339999,0.0,0.0,0.0418879020479,0.0,0.0,0.0
542,0.0,0.0,0.46916332733800004,0.883111415554,0.0,0.0,-0.0631809189222,0.0,0.0,0.0
543,0.0,0.0,0.468161167523,0.883643096065,0.0,0.0,0.0286233997327,0.0,0.0,0.0
544,0.0,0.0,0.46862377777099995,0.883397846334,0.0,0.0,0.0582939970166,0.0,0.0,0.0
545,0.0,0.0,0.469856776649,0.882742663202,0.0,0.0,0.035604716740699996,0.0,0.0,0.0
546,0.0,0.0,0.46862377777099995,0.883397846334,0.0,0.0,-0.07487462491060001,0.0,0.0,0.0
547,0.0,0.0,0.468161167523,0.883643096065,0.0,0.0,-0.0403171057211,0.0,0.0,0.0
548,0.0,0.0,0.468084053333,0.883683947469,0.0,0.0,-0.00226892802759,0.0,0.0,0.0
549,0.0,0.0,0.469086259542,0.883152354415,0.0,0.0,0.0628318530718,0.0,0.0,0.0
550,0.0,0.0,0.469702701834,0.8828246552339999,0.0,0.0,-0.0191986217719,0.0,0.0,0.0
551,0.0,0.0,0.467775560934,0.8838472857870001,0.0,0.0,-0.048171087355,0.0,0.0,0.0
552,0.0,0.0,0.46862377777099995,0.883397846334,0.0,0.0,0.06928957130419999,0.0,0.0,0.0
553,0.0,0.0,0.469702701834,0.8828246552339999,0.0,0.0,-0.00628318530718,0.0,0.0,0.0
554,0.0,0.0,0.46931745221,0.8830295176559999,0.0,0.0,-0.0553269372882,0.0,0.0,0.0
555,0.0,0.0,0.467852689379,0.883806461303,0.0,0.0,-0.0232128790515,0.0,0.0,0.0
556,0.0,0.0,0.46916332733800004,0.883111415554,0.0,0.0,0.0635299847726,0.0,0.0,0.0
557,0.0,0.0,0.469548612711,0.882906620374,0.0,0.0,-0.0359537825911,0.0,0.0,0.0
558,0.0,0.0,0.467775560934,0.8838472857870001,0.0,0.0,-0.0254818070791,0.0,0.0,0.0
559,0.0,0.0,0.46885503472400003,0.883275130644,0.0,0.0,0.0640535835482,0.0,0.0,0.0
560,0.0,0.0,0.46931745221,0.8830295176559999,0.0,0.0,-0.03473205211469999,0.0,0.0,0.0
561,0.0,0.0,0.467621293358,0.8839289145620001,0.0,0.0,-0.0535816080362,0.0,0.0,0.0
562,0.0,0.0,0.468469588624,0.883479623158,0.0,0.0,0.0600393262686,0.0,0.0,0.0
563,0.0,0.0,0.469394509285,0.882988558619,0.0,0.0,-0.0013962634016,0.0,0.0,0.0
564,0.0,0.0,0.46877795264300004,0.883316042601,0.0,0.0,-0.0703367688554,0.0,0.0,0.0
565,0.0,0.0,0.46769842892700003,0.88388810354,0.0,0.0,0.006981317007979999,0.0,0.0,0.0
566,0.0,0.0,0.469009188174,0.883193286551,0.0,0.0,0.0401425727959,0.0,0.0,0.0
567,0.0,0.0,0.46924039156099995,0.883070469967,0.0,0.0,0.0188495559215,0.0,0.0,0.0
568,0.0,0.0,0.468161167523,0.883643096065,0.0,0.0,-0.0762708883122,0.0,0.0,0.0
569,0.0,0.0,0.467621293358,0.8839289145620001,0.0,0.0,-0.0553269372882,0.0,0.0,0.0
570,0.0,0.0,0.468238278148,0.883602237931,0.0,0.0,0.0671951762018,0.0,0.0,0.0
571,0.0,0.0,0.46877795264300004,0.883316042601,0.0,0.0,0.058992128717400005,0.0,0.0,0.0
572,0.0,0.0,0.46870086699100005,0.8833569478309999,0.0,0.0,-0.0528834763354,0.0,0.0,0.0
573,0.0,0.0,0.467544154228,0.8839697188519999,0.0,0.0,-0.00279252680319,0.0,0.0,0.0
574,0.0,0.0,0.467775560934,0.8838472857870001,0.0,0.0,0.0438077642251,0.0,0.0,0.0
575,0.0,0.0,0.469009188174,0.883193286551,0.0,0.0,0.0291469985083,0.0,0.0,0.0
576,0.0,0.0,0.46916332733800004,0.883111415554,0.0,0.0,0.008901179185170001,0.0,0.0,0.0
577,0.0,0.0,0.467852689379,0.883806461303,0.0,0.0,-0.050789081233,0.0,0.0,0.0
578,0.0,0.0,0.46831538520599997,0.883561373069,0.0,0.0,0.0504400153826,0.0,0.0,0.0
579,0.0,0.0,0.469086259542,0.883152354415,0.0,0.0,0.00314159265359,0.0,0.0,0.0
580,0.0,0.0,0.468161167523,0.883643096065,0.0,0.0,-0.0605629250442,0.0,0.0,0.0
581,0.0,0.0,0.468238278148,0.883602237931,0.0,0.0,0.041015237421900004,0.0,0.0,0.0
582,0.0,0.0,0.468932113235,0.8832342119600001,0.0,0.0,0.021816615649900003,0.0,0.0,0.0
583,0.0,0.0,0.468084053333,0.883683947469,0.0,0.0,-0.0509636141582,0.0,0.0,0.0
584,0.0,0.0,0.468084053333,0.883683947469,0.0,0.0,0.032637657012299995,0.0,0.0,0.0
585,0.0,0.0,0.46885503472400003,0.883275130644,0.0,0.0,0.0157079632679,0.0,0.0,0.0
586,0.0,0.0,0.46831538520599997,0.883561373069,0.0,0.0,-0.0466002910282,0.0,0.0,0.0
587,0.0,0.0,0.468084053333,0.883683947469,0.0,0.0,0.0268780704807,0.0,0.0,0.0
588,0.0,0.0,0.46831538520599997,0.883561373069,0.0,0.0,0.0293215314335,0.0,0.0,0.0
589,0.0,0.0,0.468932113235,0.8832342119600001,0.0,0.0,0.0205948851735,0.0,0.0,0.0
590,0.0,0.0,0.468084053333,0.883683947469,0.0,0.0,-0.051661745859000005,0.0,0.0,0.0
591,0.0,0.0,0.467775560934,0.8838472857870001,0.0,0.0,-0.0219911485751,0.0,0.0,0.0
592,0.0,0.0,0.468161167523,0.883643096065,0.0,0.0,0.0303687289847,0.0,0.0,0.0
593,0.0,0.0,0.468932113235,0.8832342119600001,0.0,0.0,0.008901179185170001,0.0,0.0,0.0
594,0.0,0.0,0.46877795264300004,0.883316042601,0.0,0.0,-0.0287979326579,0.0,0.0,0.0
595,0.0,0.0,0.467929814261,0.883765630089,0.0,0.0,0.00750491578358,0.0,0.0,0.0
596,0.0,0.0,0.46870086699100005,0.8833569478309999,0.0,0.0,0.030717794835099996,0.0,0.0,0.0
597,0.0,0.0,0.46885503472400003,0.883275130644,0.0,0.0,0.015358897417600001,0.0,0.0,0.0
598,0.0,0.0,0.468469588624,0.883479623158,0.0,0.0,-0.042236967898300004,0.0,0.0,0.0
599,0.0,0.0,0.468084053333,0.883683947469,0.0,0.0,-0.0427605666739,0.0,0.0,0.0
600,0.0,0.0,0.468238278148,0.883602237931,0.0,0.0,0.0331612557879,0.0,0.0,0.0
601,0.0,0.0,0.468932113235,0.8832342119600001,0.0,0.0,0.0136135681656,0.0,0.0,0.0
602,0.0,0.0,0.467852689379,0.883806461303,0.0,0.0,-0.047996554429800005,0.0,0.0,0.0
603,0.0,0.0,0.467929814261,0.883765630089,0.0,0.0,0.0324631240871,0.0,0.0,0.0
604,0.0,0.0,0.469009188174,0.883193286551,0.0,0.0,0.0198967534727,0.0,0.0,0.0
605,0.0,0.0,0.468238278148,0.883602237931,0.0,0.0,-0.0532325421858,0.0,0.0,0.0
606,0.0,0.0,0.467852689379,0.883806461303,0.0,0.0,0.034906585039900004,0.0,0.0,0.0
607,0.0,0.0,0.46885503472400003,0.883275130644,0.0,0.0,0.0312413936107,0.0,0.0,0.0
608,0.0,0.0,0.468238278148,0.883602237931,0.0,0.0,-0.0654498469498,0.0,0.0,0.0
609,0.0,0.0,0.467544154228,0.8839697188519999,0.0,0.0,0.0212930168743,0.0,0.0,0.0
610,0.0,0.0,0.46877795264300004,0.883316042601,0.0,0.0,0.036826447217099996,0.0,0.0,0.0
611,0.0,0.0,0.468546684981,0.8834387381100001,0.0,0.0,-0.0506145483078,0.0,0.0,0.0
612,0.0,0.0,0.467389865287,0.884051307237,0.0,0.0,0.009250245035569999,0.0,0.0,0.0
613,0.0,0.0,0.467621293358,0.8839289145620001,0.0,0.0,0.041713369122699996,0.0,0.0,0.0
614,0.0,0.0,0.468932113235,0.8832342119600001,0.0,0.0,0.0329867228627,0.0,0.0,0.0
615,0.0,0.0,0.46800693557899997,0.8837247921439999,0.0,0.0,-0.0787143492649,0.0,0.0,0.0
616,0.0,0.0,0.467467011537,0.884010516411,0.0,0.0,-0.063006385997,0.0,0.0,0.0
617,0.0,0.0,0.467929814261,0.883765630089,0.0,0.0,0.06143558967019999,0.0,0.0,0.0
618,0.0,0.0,0.46916332733800004,0.883111415554,0.0,0.0,0.008901179185170001,0.0,0.0,0.0
619,0.0,0.0,0.469009188174,0.883193286551,0.0,0.0,-0.0237364778271,0.0,0.0,0.0
620,0.0,0.0,0.467389865287,0.884051307237,0.0,0.0,-0.0301941960595,0.0,0.0,0.0
621,0.0,0.0,0.468392488698,0.883520501477,0.0,0.0,0.0553269372882,0.0,0.0,0.0
622,0.0,0.0,0.46877795264300004,0.883316042601,0.0,0.0,0.0357792496659,0.0,0.0,0.0
623,0.0,0.0,0.46870086699100005,0.8833569478309999,0.0,0.0,-0.046774823953400005,0.0,0.0,0.0
624,0.0,0.0,0.468161167523,0.883643096065,0.0,0.0,-0.06946410422939998,0.0,0.0,0.0
625,0.0,0.0,0.46800693557899997,0.8837247921439999,0.0,0.0,0.049916416607,0.0,0.0,0.0
626,0.0,0.0,0.469009188174,0.883193286551,0.0,0.0,0.0301941960595,0.0,0.0,0.0
627,0.0,0.0,0.46831538520599997,0.883561373069,0.0,0.0,-0.069115038379,0.0,0.0,0.0
628,0.0,0.0,0.46769842892700003,0.88388810354,0.0,0.0,0.026005405854700004,0.0,0.0,0.0
629,0.0,0.0,0.468932113235,0.8832342119600001,0.0,0.0,0.0303687289847,0.0,0.0,0.0
630,0.0,0.0,0.468469588624,0.883479623158,0.0,0.0,-0.07051130178060001,0.0,0.0,0.0
631,0.0,0.0,0.467467011537,0.884010516411,0.0,0.0,0.0277507351067,0.0,0.0,0.0
632,0.0,0.0,0.46862377777099995,0.883397846334,0.0,0.0,0.0432841654495,0.0,0.0,0.0
633,0.0,0.0,0.46862377777099995,0.883397846334,0.0,0.0,-0.0392699081699,0.0,0.0,0.0
634,0.0,0.0,0.467775560934,0.8838472857870001,0.0,0.0,0.007679448708779999,0.0,0.0,0.0
635,0.0,0.0,0.468932113235,0.8832342119600001,0.0,0.0,0.0403171057211,0.0,0.0,0.0
636,0.0,0.0,0.469086259542,0.883152354415,0.0,0.0,0.0162315620435,0.0,0.0,0.0
637,0.0,0.0,0.46800693557899997,0.8837247921439999,0.0,0.0,-0.0685914396034,0.0,0.0,0.0
638,0.0,0.0,0.467775560934,0.8838472857870001,0.0,0.0,0.0333357887131,0.0,0.0,0.0
639,0.0,0.0,0.468161167523,0.883643096065,0.0,0.0,0.0452040276267,0.0,0.0,0.0
640,0.0,0.0,0.469086259542,0.883152354415,0.0,0.0,0.009250245035569999,0.0,0.0,0.0
641,0.0,0.0,0.46870086699100005,0.8833569478309999,0.0,0.0,-0.046774823953400005,0.0,0.0,0.0
642,0.0,0.0,0.46769842892700003,0.88388810354,0.0,0.0,-0.008028514559169999,0.0,0.0,0.0
643,0.0,0.0,0.467852689379,0.883806461303,0.0,0.0,0.0291469985083,0.0,0.0,0.0
644,0.0,0.0,0.468932113235,0.8832342119600001,0.0,0.0,0.028274333882299996,0.0,0.0,0.0
645,0.0,0.0,0.469086259542,0.883152354415,0.0,0.0,0.0134390352404,0.0,0.0,0.0
646,0.0,0.0,0.468084053333,0.883683947469,0.0,0.0,-0.0619591884458,0.0,0.0,0.0
647,0.0,0.0,0.468084053333,0.883683947469,0.0,0.0,0.045378560551899996,0.0,0.0,0.0
648,0.0,0.0,0.46885503472400003,0.883275130644,0.0,0.0,0.008028514559169999,0.0,0.0,0.0
649,0.0,0.0,0.467852689379,0.883806461303,0.0,0.0,-0.0602138591938,0.0,0.0,0.0
650,0.0,0.0,0.467775560934,0.8838472857870001,0.0,0.0,0.042935099599099996,0.0,0.0,0.0
651,0.0,0.0,0.46870086699100005,0.8833569478309999,0.0,0.0,0.021118483949099997,0.0,0.0,0.0
652,0.0,0.0,0.467852689379,0.883806461303,0.0,0.0,-0.0513126800086,0.0,0.0,0.0
653,0.0,0.0,0.46769842892700003,0.88388810354,0.0,0.0,0.036302848441499995,0.0,0.0,0.0
654,0.0,0.0,0.46870086699100005,0.8833569478309999,0.0,0.0,0.014835298642,0.0,0.0,0.0
655,0.0,0.0,0.46800693557899997,0.8837247921439999,0.0,0.0,-0.054105206811800005,0.0,0.0,0.0
656,0.0,0.0,0.46769842892700003,0.88388810354,0.0,0.0,0.04084070449669999,0.0,0.0,0.0
657,0.0,0.0,0.46877795264300004,0.883316042601,0.0,0.0,0.0256563400043,0.0,0.0,0.0
658,0.0,0.0,0.467544154228,0.8839697188519999,0.0,0.0,-0.013089969390000001,0.0,0.0,0.0
659,0.0,0.0,0.46831538520599997,0.883561373069,0.0,0.0,0.0431096325243,0.0,0.0,0.0
660,0.0,0.0,0.468546684981,0.8834387381100001,0.0,0.0,-0.028448866807499997,0.0,0.0,0.0
661,0.0,0.0,0.468238278148,0.883602237931,0.0,0.0,-0.045378560551899996,0.0,0.0,0.0
662,0.0,0.0,0.467621293358,0.8839289145620001,0.0,0.0,0.020943951023900002,0.0,0.0,0.0
663,0.0,0.0,0.467929814261,0.883765630089,0.0,0.0,0.0441568300755,0.0,0.0,0.0
664,0.0,0.0,0.46877795264300004,0.883316042601,0.0,0.0,0.008028514559169999,0.0,0.0,0.0
665,0.0,0.0,0.46870086699100005,0.8833569478309999,0.0,0.0,-0.015358897417600001,0.0,0.0,0.0
666,0.0,0.0,0.467621293358,0.8839289145620001,0.0,0.0,-0.0321140582367,0.0,0.0,0.0
667,0.0,0.0,0.467544154228,0.8839697188519999,0.0,0.0,-0.00157079632679,0.0,0.0,0.0
668,0.0,0.0,0.468392488698,0.883520501477,0.0,0.0,0.0190240888467,0.0,0.0,0.0
669,0.0,0.0,0.46831538520599997,0.883561373069,0.0,0.0,-0.0240855436775,0.0,0.0,0.0
670,0.0,0.0,0.46800693557899997,0.8837247921439999,0.0,0.0,-0.037873644768300005,0.0,0.0,0.0
671,0.0,0.0,0.46769842892700003,0.88388810354,0.0,0.0,0.0212930168743,0.0,0.0,0.0
672,0.0,0.0,0.46800693557899997,0.8837247921439999,0.0,0.0,0.039968039870699995,0.0,0.0,0.0
673,0.0,0.0,0.468546684981,0.8834387381100001,0.0,0.0,-0.00488692190558,0.0,0.0,0.0
674,0.0,0.0,0.467852689379,0.883806461303,0.0,0.0,-0.032637657012299995,0.0,0.0,0.0
675,0.0,0.0,0.468161167523,0.883643096065,0.0,0.0,0.036826447217099996,0.0,0.0,0.0
676,0.0,0.0,0.46862377777099995,0.883397846334,0.0,0.0,0.0012217304764,0.0,0.0,0.0
677,0.0,0.0,0.467852689379,0.883806461303,0.0,0.0,-0.0434586983747,0.0,0.0,0.0
678,0.0,0.0,0.46769842892700003,0.88388810354,0.0,0.0,0.0310668606855,0.0,0.0,0.0
679,0.0,0.0,0.468546684981,0.8834387381100001,0.0,0.0,0.0144862327916,0.0,0.0,0.0
680,0.0,0.0,0.468161167523,0.883643096065,0.0,0.0,-0.039793506945500004,0.0,0.0,0.0
681,0.0,0.0,0.467852689379,0.883806461303,0.0,0.0,0.0268780704807,0.0,0.0,0.0
682,0.0,0.0,0.468469588624,0.883479623158,0.0,0.0,0.009075712110370001,0.0,0.0,0.0
683,0.0,0.0,0.468161167523,0.883643096065,0.0,0.0,-0.0357792496659,0.0,0.0,0.0
684,0.0,0.0,0.467775560934,0.8838472857870001,0.0,0.0,-0.04258603374869999,0.0,0.0,0.0
685,0.0,0.0,0.467852689379,0.883806461303,0.0,0.0,0.030892327760299997,0.0,0.0,0.0
686,0.0,0.0,0.468469588624,0.883479623158,0.0,0.0,0.013089969390000001,0.0,0.0,0.0
687,0.0,0.0,0.468469588624,0.883479623158,0.0,0.0,-0.010646508437200001,0.0,0.0,0.0
688,0.0,0.0,0.467389865287,0.884051307237,0.0,0.0,-0.0333357887131,0.0,0.0,0.0
689,0.0,0.0,0.467389865287,0.884051307237,0.0,0.0,0.0134390352404,0.0,0.0,0.0
690,0.0,0.0,0.468161167523,0.883643096065,0.0,0.0,0.032637657012299995,0.0,0.0,0.0
691,0.0,0.0,0.468392488698,0.883520501477,0.0,0.0,0.0298451302091,0.0,0.0,0.0
692,0.0,0.0,0.467852689379,0.883806461303,0.0,0.0,-0.0631809189222,0.0,0.0,0.0
693,0.0,0.0,0.467467011537,0.884010516411,0.0,0.0,-0.046251225177800004,0.0,0.0,0.0
694,0.0,0.0,0.46769842892700003,0.88388810354,0.0,0.0,0.035081117965099995,0.0,0.0,0.0
695,0.0,0.0,0.46862377777099995,0.883397846334,0.0,0.0,0.0242600766027,0.0,0.0,0.0
696,0.0,0.0,0.467467011537,0.884010516411,0.0,0.0,-0.057770398241,0.0,0.0,0.0
697,0.0,0.0,0.467621293358,0.8839289145620001,0.0,0.0,0.0403171057211,0.0,0.0,0.0
698,0.0,0.0,0.46870086699100005,0.8833569478309999,0.0,0.0,0.0225147473507,0.0,0.0,0.0
699,0.0,0.0,0.467852689379,0.883806461303,0.0,0.0,-0.0666715774262,0.0,0.0,0.0
700,0.0,0.0,0.46769842892700003,0.88388810354,0.0,0.0,0.0401425727959,0.0,0.0,0.0
701,0.0,0.0,0.46862377777099995,0.883397846334,0.0,0.0,0.0331612557879,0.0,0.0,0.0
702,0.0,0.0,0.46769842892700003,0.88388810354,0.0,0.0,-0.06143558967019999,0.0,0.0,0.0
703,0.0,0.0,0.467544154228,0.8839697188519999,0.0,0.0,0.0354301838155,0.0,0.0,0.0
704,0.0,0.0,0.46870086699100005,0.8833569478309999,0.0,0.0,0.03403392041390001,0.0,0.0,0.0
705,0.0,0.0,0.46885503472400003,0.883275130644,0.0,0.0,0.006632251157579999,0.0,0.0,0.0
706,0.0,0.0,0.46769842892700003,0.88388810354,0.0,0.0,-0.0575958653158,0.0,0.0,0.0
707,0.0,0.0,0.467852689379,0.883806461303,0.0,0.0,0.0436332312999,0.0,0.0,0.0
708,0.0,0.0,0.468161167523,0.883643096065,0.0,0.0,0.035081117965099995,0.0,0.0,0.0
709,0.0,0.0,0.46877795264300004,0.883316042601,0.0,0.0,0.00750491578358,0.0,0.0,0.0
710,0.0,0.0,0.468392488698,0.883520501477,0.0,0.0,-0.045553093477099994,0.0,0.0,0.0
711,0.0,0.0,0.467544154228,0.8839697188519999,0.0,0.0,0.00226892802759,0.0,0.0,0.0
712,0.0,0.0,0.467775560934,0.8838472857870001,0.0,0.0,0.0280998009571,0.0,0.0,0.0
713,0.0,0.0,0.46870086699100005,0.8833569478309999,0.0,0.0,0.0186750229963,0.0,0.0,0.0
714,0.0,0.0,0.46877795264300004,0.883316042601,0.0,0.0,-0.00471238898038,0.0,0.0,0.0
715,0.0,0.0,0.467775560934,0.8838472857870001,0.0,0.0,-0.0493928178314,0.0,0.0,0.0
716,0.0,0.0,0.468161167523,0.883643096065,0.0,0.0,0.0504400153826,0.0,0.0,0.0
717,0.0,0.0,0.46885503472400003,0.883275130644,0.0,0.0,0.0109955742876,0.0,0.0,0.0
718,0.0,0.0,0.467621293358,0.8839289145620001,0.0,0.0,-0.046774823953400005,0.0,0.0,0.0
719,0.0,0.0,0.467929814261,0.883765630089,0.0,0.0,0.0387463093943,0.0,0.0,0.0
720,0.0,0.0,0.46877795264300004,0.883316042601,0.0,0.0,-0.000872664625997,0.0,0.0,0.0
721,0.0,0.0,0.46769842892700003,0.88388810354,0.0,0.0,-0.042935099599099996,0.0,0.0,0.0
722,0.0,0.0,0.46800693557899997,0.8837247921439999,0.0,0.0,0.0478220215046,0.0,0.0,0.0
723,0.0,0.0,0.46877795264300004,0.883316042601,0.0,0.0,0.000872664625997,0.0,0.0,0.0
724,0.0,0.0,0.467621293358,0.8839289145620001,0.0,0.0,-0.054279739737,0.0,0.0,0.0
725,0.0,0.0,0.467775560934,0.8838472857870001,0.0,0.0,0.042935099599099996,0.0,0.0,0.0
726,0.0,0.0,0.46862377777099995,0.883397846334,0.0,0.0,0.00715584993318,0.0,0.0,0.0
727,0.0,0.0,0.46769842892700003,0.88388810354,0.0,0.0,-0.0432841654495,0.0,0.0,0.0
728,0.0,0.0,0.467467011537,0.884010516411,0.0,0.0,-0.024783675378299997,0.0,0.0,0.0
729,0.0,0.0,0.468084053333,0.883683947469,0.0,0.0,0.0434586983747,0.0,0.0,0.0
730,0.0,0.0,0.468546684981,0.8834387381100001,0.0,0.0,-0.014660765716799999,0.0,0.0,0.0
731,0.0,0.0,0.468238278148,0.883602237931,0.0,0.0,-0.0432841654495,0.0,0.0,0.0
732,0.0,0.0,0.46731271547700004,0.8840920913310001,0.0,0.0,-0.0033161255787899995,0.0,0.0,0.0
733,0.0,0.0,0.468392488698,0.883520501477,0.0,0.0,0.03403392041390001,0.0,0.0,0.0
734,0.0,0.0,0.468546684981,0.8834387381100001,0.0,0.0,0.0160570291183,0.0,0.0,0.0
735,0.0,0.0,0.467544154228,0.8839697188519999,0.0,0.0,-0.0635299847726,0.0,0.0,0.0
736,0.0,0.0,0.467158405181,0.8841736393200001,0.0,0.0,-0.0387463093943,0.0,0.0,0.0
737,0.0,0.0,0.46769842892700003,0.88388810354,0.0,0.0,0.0431096325243,0.0,0.0,0.0
738,0.0,0.0,0.468392488698,0.883520501477,0.0,0.0,0.00488692190558,0.0,0.0,0.0
739,0.0,0.0,0.468238278148,0.883602237931,0.0,0.0,-0.0267035375555,0.0,0.0,0.0
740,0.0,0.0,0.467235562108,0.884132868692,0.0,0.0,-0.015533430342700001,0.0,0.0,0.0
741,0.0,0.0,0.468161167523,0.883643096065,0.0,0.0,0.036826447217099996,0.0,0.0,0.0
742,0.0,0.0,0.46831538520599997,0.883561373069,0.0,0.0,-0.0239110107523,0.0,0.0,0.0
743,0.0,0.0,0.467081244696,0.884214403215,0.0,0.0,-0.010821041362399999,0.0,0.0,0.0
744,0.0,0.0,0.468084053333,0.883683947469,0.0,0.0,0.036128315516300004,0.0,0.0,0.0
745,0.0,0.0,0.46831538520599997,0.883561373069,0.0,0.0,-0.0176278254451,0.0,0.0,0.0
746,0.0,0.0,0.467158405181,0.8841736393200001,0.0,0.0,-0.0020943951023900003,0.0,0.0,0.0
747,0.0,0.0,0.467929814261,0.883765630089,0.0,0.0,0.035081117965099995,0.0,0.0,0.0
748,0.0,0.0,0.468392488698,0.883520501477,0.0,0.0,-0.0136135681656,0.0,0.0,0.0
749,0.0,0.0,0.46731271547700004,0.8840920913310001,0.0,0.0,-0.027052603405900003,0.0,0.0,0.0
750,0.0,0.0,0.467929814261,0.883765630089,0.0,0.0,0.0357792496659,0.0,0.0,0.0
751,0.0,0.0,0.468469588624,0.883479623158,0.0,0.0,0.00820304748437,0.0,0.0,0.0
752,0.0,0.0,0.467467011537,0.884010516411,0.0,0.0,-0.0403171057211,0.0,0.0,0.0
753,0.0,0.0,0.467467011537,0.884010516411,0.0,0.0,0.00628318530718,0.0,0.0,0.0
754,0.0,0.0,0.46800693557899997,0.8837247921439999,0.0,0.0,0.0197222205475,0.0,0.0,0.0
755,0.0,0.0,0.468238278148,0.883602237931,0.0,0.0,-0.0191986217719,0.0,0.0,0.0
756,0.0,0.0,0.467929814261,0.883765630089,0.0,0.0,-0.0438077642251,0.0,0.0,0.0
757,0.0,0.0,0.467544154228,0.8839697188519999,0.0,0.0,0.014137166941200001,0.0,0.0,0.0
758,0.0,0.0,0.467852689379,0.883806461303,0.0,0.0,0.024783675378299997,0.0,0.0,0.0
759,0.0,0.0,0.46831538520599997,0.883561373069,0.0,0.0,0.00837758040957,0.0,0.0,0.0
760,0.0,0.0,0.46831538520599997,0.883561373069,0.0,0.0,-0.005759586531579999,0.0,0.0,0.0
761,0.0,0.0,0.467389865287,0.884051307237,0.0,0.0,-0.014311699866400001,0.0,0.0,0.0
762,0.0,0.0,0.467467011537,0.884010516411,0.0,0.0,0.014311699866400001,0.0,0.0,0.0
763,0.0,0.0,0.46800693557899997,0.8837247921439999,0.0,0.0,0.0242600766027,0.0,0.0,0.0
764,0.0,0.0,0.46800693557899997,0.8837247921439999,0.0,0.0,-0.0287979326579,0.0,0.0,0.0
765,0.0,0.0,0.46731271547700004,0.8840920913310001,0.0,0.0,-0.012391837689200002,0.0,0.0,0.0
766,0.0,0.0,0.467852689379,0.883806461303,0.0,0.0,0.0319395253115,0.0,0.0,0.0
767,0.0,0.0,0.468084053333,0.883683947469,0.0,0.0,-0.0216420827247,0.0,0.0,0.0
768,0.0,0.0,0.467389865287,0.884051307237,0.0,0.0,-0.00820304748437,0.0,0.0,0.0
769,0.0,0.0,0.467929814261,0.883765630089,0.0,0.0,0.0219911485751,0.0,0.0,0.0
770,0.0,0.0,0.468161167523,0.883643096065,0.0,0.0,-0.0019198621771900001,0.0,0.0,0.0
771,0.0,0.0,0.467467011537,0.884010516411,0.0,0.0,-0.013089969390000001,0.0,0.0,0.0
772,0.0,0.0,0.467929814261,0.883765630089,0.0,0.0,0.0291469985083,0.0,0.0,0.0
773,0.0,0.0,0.468238278148,0.883602237931,0.0,0.0,-0.00994837673637,0.0,0.0,0.0
774,0.0,0.0,0.46731271547700004,0.8840920913310001,0.0,0.0,-0.030892327760299997,0.0,0.0,0.0
775,0.0,0.0,0.467929814261,0.883765630089,0.0,0.0,0.0401425727959,0.0,0.0,0.0
776,0.0,0.0,0.468161167523,0.883643096065,0.0,0.0,0.0280998009571,0.0,0.0,0.0
777,0.0,0.0,0.468238278148,0.883602237931,0.0,0.0,-0.015533430342700001,0.0,0.0,0.0
778,0.0,0.0,0.467389865287,0.884051307237,0.0,0.0,-0.0019198621771900001,0.0,0.0,0.0
779,0.0,0.0,0.467544154228,0.8839697188519999,0.0,0.0,0.0301941960595,0.0,0.0,0.0
780,0.0,0.0,0.468546684981,0.8834387381100001,0.0,0.0,0.0324631240871,0.0,0.0,0.0
781,0.0,0.0,0.46870086699100005,0.8833569478309999,0.0,0.0,-0.005410520681180001,0.0,0.0,0.0
782,0.0,0.0,0.46769842892700003,0.88388810354,0.0,0.0,-0.0504400153826,0.0,0.0,0.0
783,0.0,0.0,0.467389865287,0.884051307237,0.0,0.0,-0.0293215314335,0.0,0.0,0.0
784,0.0,0.0,0.46831538520599997,0.883561373069,0.0,0.0,0.0359537825911,0.0,0.0,0.0
785,0.0,0.0,0.468546684981,0.8834387381100001,0.0,0.0,0.026354471705099997,0.0,0.0,0.0
786,0.0,0.0,0.468392488698,0.883520501477,0.0,0.0,-0.046774823953400005,0.0,0.0,0.0
787,0.0,0.0,0.46731271547700004,0.8840920913310001,0.0,0.0,0.013788101090799998,0.0,0.0,0.0
788,0.0,0.0,0.468469588624,0.883479623158,0.0,0.0,0.04712388980380001,0.0,0.0,0.0
789,0.0,0.0,0.468392488698,0.883520501477,0.0,0.0,-0.05654866776459999,0.0,0.0,0.0
790,0.0,0.0,0.467235562108,0.884132868692,0.0,0.0,0.00471238898038,0.0,0.0,0.0
791,0.0,0.0,0.468546684981,0.8834387381100001,0.0,0.0,0.04502949470150001,0.0,0.0,0.0
792,0.0,0.0,0.46870086699100005,0.8833569478309999,0.0,0.0,-0.042411500823499995,0.0,0.0,0.0
793,0.0,0.0,0.467467011537,0.884010516411,0.0,0.0,-0.00680678408278,0.0,0.0,0.0
794,0.0,0.0,0.468546684981,0.8834387381100001,0.0,0.0,0.0342084533391,0.0,0.0,0.0
795,0.0,0.0,0.468932113235,0.8832342119600001,0.0,0.0,-0.017278759594700002,0.0,0.0,0.0
796,0.0,0.0,0.467544154228,0.8839697188519999,0.0,0.0,-0.006632251157579999,0.0,0.0,0.0
797,0.0,0.0,0.46831538520599997,0.883561373069,0.0,0.0,0.039968039870699995,0.0,0.0,0.0
798,0.0,0.0,0.468932113235,0.8832342119600001,0.0,0.0,-0.0181514242207,0.0,0.0,0.0
799,0.0,0.0,0.468546684981,0.8834387381100001,0.0,0.0,-0.05707226654019999,0.0,0.0,0.0
800,0.0,0.0,0.467621293358,0.8839289145620001,0.0,0.0,0.006981317007979999,0.0,0.0,0.0
801,0.0,0.0,0.46862377777099995,0.883397846334,0.0,0.0,0.0359537825911,0.0,0.0,0.0
802,0.0,0.0,0.46885503472400003,0.883275130644,0.0,0.0,0.027052603405900003,0.0,0.0,0.0
803,0.0,0.0,0.468084053333,0.883683947469,0.0,0.0,-0.0766199541626,0.0,0.0,0.0
804,0.0,0.0,0.467467011537,0.884010516411,0.0,0.0,-0.0286233997327,0.0,0.0,0.0
805,0.0,0.0,0.468161167523,0.883643096065,0.0,0.0,0.044680428851100004,0.0,0.0,0.0
806,0.0,0.0,0.468546684981,0.8834387381100001,0.0,0.0,0.0478220215046,0.0,0.0,0.0
807,0.0,0.0,0.468932113235,0.8832342119600001,0.0,0.0,-0.035081117965099995,0.0,0.0,0.0
808,0.0,0.0,0.468392488698,0.883520501477,0.0,0.0,-0.0654498469498,0.0,0.0,0.0
809,0.0,0.0,0.467775560934,0.8838472857870001,0.0,0.0,0.0202458193231,0.0,0.0,0.0
810,0.0,0.0,0.468932113235,0.8832342119600001,0.0,0.0,0.0298451302091,0.0,0.0,0.0
811,0.0,0.0,0.469086259542,0.883152354415,0.0,0.0,0.00855211333477,0.0,0.0,0.0
812,0.0,0.0,0.467621293358,0.8839289145620001,0.0,0.0,-0.046425758103,0.0,0.0,0.0
813,0.0,0.0,0.467929814261,0.883765630089,0.0,0.0,0.045378560551899996,0.0,0.0,0.0
814,0.0,0.0,0.46877795264300004,0.883316042601,0.0,0.0,-0.0010471975512,0.0,0.0,0.0
815,0.0,0.0,0.46769842892700003,0.88388810354,0.0,0.0,-0.053407075111,0.0,0.0,0.0
816,0.0,0.0,0.46800693557899997,0.8837247921439999,0.0,0.0,0.041189770347099995,0.0,0.0,0.0
817,0.0,0.0,0.46831538520599997,0.883561373069,0.0,0.0,0.04206243497309999,0.0,0.0,0.0
818,0.0,0.0,0.46885503472400003,0.883275130644,0.0,0.0,-0.011868238913600001,0.0,0.0,0.0
819,0.0,0.0,0.46769842892700003,0.88388810354,0.0,0.0,-0.0202458193231,0.0,0.0,0.0
820,0.0,0.0,0.46831538520599997,0.883561373069,0.0,0.0,0.043982297150300005,0.0,0.0,0.0
821,0.0,0.0,0.46877795264300004,0.883316042601,0.0,0.0,-0.0212930168743,0.0,0.0,0.0
822,0.0,0.0,0.467544154228,0.8839697188519999,0.0,0.0,-0.0371755130675,0.0,0.0,0.0
823,0.0,0.0,0.467544154228,0.8839697188519999,0.0,0.0,0.017453292519900004,0.0,0.0,0.0
824,0.0,0.0,0.468469588624,0.883479623158,0.0,0.0,0.036128315516300004,0.0,0.0,0.0
825,0.0,0.0,0.468238278148,0.883602237931,0.0,0.0,-0.049916416607,0.0,0.0,0.0
826,0.0,0.0,0.467775560934,0.8838472857870001,0.0,0.0,-0.04921828490619999,0.0,0.0,0.0
827,0.0,0.0,0.46769842892700003,0.88388810354,0.0,0.0,0.0338593874887,0.0,0.0,0.0
828,0.0,0.0,0.468084053333,0.883683947469,0.0,0.0,0.0493928178314,0.0,0.0,0.0
829,0.0,0.0,0.46870086699100005,0.8833569478309999,0.0,0.0,-0.0198967534727,0.0,0.0,0.0
830,0.0,0.0,0.46831538520599997,0.883561373069,0.0,0.0,-0.04712388980380001,0.0,0.0,0.0
831,0.0,0.0,0.46731271547700004,0.8840920913310001,0.0,0.0,0.0012217304764,0.0,0.0,0.0
832,0.0,0.0,0.468392488698,0.883520501477,0.0,0.0,0.047298422729,0.0,0.0,0.0
833,0.0,0.0,0.46862377777099995,0.883397846334,0.0,0.0,0.0230383461263,0.0,0.0,0.0
834,0.0,0.0,0.46769842892700003,0.88388810354,0.0,0.0,-0.0563741348394,0.0,0.0,0.0
835,0.0,0.0,0.46731271547700004,0.8840920913310001,0.0,0.0,-0.037873644768300005,0.0,0.0,0.0
836,0.0,0.0,0.467544154228,0.8839697188519999,0.0,0.0,0.0359537825911,0.0,0.0,0.0
837,0.0,0.0,0.46831538520599997,0.883561373069,0.0,0.0,-0.00558505360638,0.0,0.0,0.0
838,0.0,0.0,0.467467011537,0.884010516411,0.0,0.0,-0.0401425727959,0.0,0.0,0.0
839,0.0,0.0,0.467621293358,0.8839289145620001,0.0,0.0,0.044680428851100004,0.0,0.0,0.0
840,0.0,0.0,0.468238278148,0.883602237931,0.0,0.0,0.00279252680319,0.0,0.0,0.0
841,0.0,0.0,0.467467011537,0.884010516411,0.0,0.0,-0.045553093477099994,0.0,0.0,0.0
842,0.0,0.0,0.467467011537,0.884010516411,0.0,0.0,0.033684854563500004,0.0,0.0,0.0
843,0.0,0.0,0.468084053333,0.883683947469,0.0,0.0,0.007853981633970001,0.0,0.0,0.0
844,0.0,0.0,0.46731271547700004,0.8840920913310001,0.0,0.0,-0.0370009801423,0.0,0.0,0.0
845,0.0,0.0,0.467389865287,0.884051307237,0.0,0.0,0.0322885911619,0.0,0.0,0.0
846,0.0,0.0,0.467929814261,0.883765630089,0.0,0.0,0.0012217304764,0.0,0.0,0.0
847,0.0,0.0,0.467389865287,0.884051307237,0.0,0.0,-0.041015237421900004,0.0,0.0,0.0
848,0.0,0.0,0.467235562108,0.884132868692,0.0,0.0,0.0314159265359,0.0,0.0,0.0
849,0.0,0.0,0.467544154228,0.8839697188519999,0.0,0.0,0.0301941960595,0.0,0.0,0.0
850,0.0,0.0,0.467929814261,0.883765630089,0.0,0.0,-0.00157079632679,0.0,0.0,0.0
851,0.0,0.0,0.467004080655,0.8842551603759999,0.0,0.0,-0.0441568300755,0.0,0.0,0.0
852,0.0,0.0,0.46684974190300005,0.884336654496,0.0,0.0,-0.00837758040957,0.0,0.0,0.0
853,0.0,0.0,0.467467011537,0.884010516411,0.0,0.0,0.021118483949099997,0.0,0.0,0.0
854,0.0,0.0,0.467775560934,0.8838472857870001,0.0,0.0,-0.00488692190558,0.0,0.0,0.0
855,0.0,0.0,0.467544154228,0.8839697188519999,0.0,0.0,-0.0364773813667,0.0,0.0,0.0
856,0.0,0.0,0.467004080655,0.8842551603759999,0.0,0.0,0.0239110107523,0.0,0.0,0.0
857,0.0,0.0,0.467621293358,0.8839289145620001,0.0,0.0,0.0132645023152,0.0,0.0,0.0
858,0.0,0.0,0.467621293358,0.8839289145620001,0.0,0.0,-0.023387411976700002,0.0,0.0,0.0
859,0.0,0.0,0.467004080655,0.8842551603759999,0.0,0.0,0.0020943951023900003,0.0,0.0,0.0
860,0.0,0.0,0.46769842892700003,0.88388810354,0.0,0.0,0.0125663706144,0.0,0.0,0.0
861,0.0,0.0,0.467544154228,0.8839697188519999,0.0,0.0,-0.030717794835099996,0.0,0.0,0.0
862,0.0,0.0,0.466772567194,0.8843773914540001,0.0,0.0,0.006981317007979999,0.0,0.0,0.0
863,0.0,0.0,0.46731271547700004,0.8840920913310001,0.0,0.0,0.0345575191895,0.0,0.0,0.0
864,0.0,0.0,0.467775560934,0.8838472857870001,0.0,0.0,-0.029670597283900004,0.0,0.0,0.0
865,0.0,0.0,0.467389865287,0.884051307237,0.0,0.0,-0.052534410484999995,0.0,0.0,0.0
866,0.0,0.0,0.46669538893,0.884418121677,0.0,0.0,0.0019198621771900001,0.0,0.0,0.0
867,0.0,0.0,0.467621293358,0.8839289145620001,0.0,0.0,0.039793506945500004,0.0,0.0,0.0
868,0.0,0.0,0.467621293358,0.8839289145620001,0.0,0.0,-0.05270894341019999,0.0,0.0,0.0
869,0.0,0.0,0.467004080655,0.8842551603759999,0.0,0.0,-0.04502949470150001,0.0,0.0,0.0
870,0.0,0.0,0.46692691305699996,0.8842959108030001,0.0,0.0,0.0280998009571,0.0,0.0,0.0
871,0.0,0.0,0.468084053333,0.883683947469,0.0,0.0,0.0345575191895,0.0,0.0,0.0
872,0.0,0.0,0.468084053333,0.883683947469,0.0,0.0,-0.0116937059884,0.0,0.0,0.0
873,0.0,0.0,0.46692691305699996,0.8842959108030001,0.0,0.0,-0.0427605666739,0.0,0.0,0.0
874,0.0,0.0,0.467235562108,0.884132868692,0.0,0.0,0.051138147083400004,0.0,0.0,0.0
875,0.0,0.0,0.467621293358,0.8839289145620001,0.0,0.0,0.0483456202802,0.0,0.0,0.0
876,0.0,0.0,0.467852689379,0.883806461303,0.0,0.0,-0.0343829862643,0.0,0.0,0.0
877,0.0,0.0,0.467158405181,0.8841736393200001,0.0,0.0,-0.0610865238198,0.0,0.0,0.0
878,0.0,0.0,0.466772567194,0.8843773914540001,0.0,0.0,0.0219911485751,0.0,0.0,0.0
879,0.0,0.0,0.467081244696,0.884214403215,0.0,0.0,0.0441568300755,0.0,0.0,0.0
880,0.0,0.0,0.468161167523,0.883643096065,0.0,0.0,0.008028514559169999,0.0,0.0,0.0
881,0.0,0.0,0.46800693557899997,0.8837247921439999,0.0,0.0,-0.0242600766027,0.0,0.0,0.0
882,0.0,0.0,0.46684974190300005,0.884336654496,0.0,0.0,-0.0357792496659,0.0,0.0,0.0
883,0.0,0.0,0.467389865287,0.884051307237,0.0,0.0,0.045553093477099994,0.0,0.0,0.0
884,0.0,0.0,0.468084053333,0.883683947469,0.0,0.0,-0.0005235987755980001,0.0,0.0,0.0
885,0.0,0.0,0.46692691305699996,0.8842959108030001,0.0,0.0,-0.028972465583099998,0.0,0.0,0.0
886,0.0,0.0,0.467235562108,0.884132868692,0.0,0.0,0.0401425727959,0.0,0.0,0.0
887,0.0,0.0,0.467852689379,0.883806461303,0.0,0.0,-0.00366519142919,0.0,0.0,0.0
888,0.0,0.0,0.46692691305699996,0.8842959108030001,0.0,0.0,-0.0504400153826,0.0,0.0,0.0
889,0.0,0.0,0.467158405181,0.8841736393200001,0.0,0.0,0.04502949470150001,0.0,0.0,0.0
890,0.0,0.0,0.467852689379,0.883806461303,0.0,0.0,0.008028514559169999,0.0,0.0,0.0
891,0.0,0.0,0.466772567194,0.8843773914540001,0.0,0.0,-0.0644026493986,0.0,0.0,0.0
892,0.0,0.0,0.467081244696,0.884214403215,0.0,0.0,0.0443313630007,0.0,0.0,0.0
893,0.0,0.0,0.467775560934,0.8838472857870001,0.0,0.0,0.00994837673637,0.0,0.0,0.0
894,0.0,0.0,0.46692691305699996,0.8842959108030001,0.0,0.0,-0.048171087355,0.0,0.0,0.0
895,0.0,0.0,0.467158405181,0.8841736393200001,0.0,0.0,0.045378560551899996,0.0,0.0,0.0
896,0.0,0.0,0.467929814261,0.883765630089,0.0,0.0,-0.00157079632679,0.0,0.0,0.0
897,0.0,0.0,0.467775560934,0.8838472857870001,0.0,0.0,-0.024609142453099996,0.0,0.0,0.0
898,0.0,0.0,0.46669538893,0.884418121677,0.0,0.0,-0.035081117965099995,0.0,0.0,0.0
899,0.0,0.0,0.46669538893,0.884418121677,0.0,0.0,0.0102974425868,0.0,0.0,0.0
900,0.0,0.0,0.467775560934,0.8838472857870001,0.0,0.0,0.0240855436775,0.0,0.0,0.0
901,0.0,0.0,0.467852689379,0.883806461303,0.0,0.0,0.008901179185170001,0.0,0.0,0.0
902,0.0,0.0,0.467004080655,0.8842551603759999,0.0,0.0,-0.0478220215046,0.0,0.0,0.0
903,0.0,0.0,0.467081244696,0.884214403215,0.0,0.0,0.046076692252699995,0.0,0.0,0.0
904,0.0,0.0,0.467467011537,0.884010516411,0.0,0.0,0.0459021593275,0.0,0.0,0.0
905,0.0,0.0,0.46769842892700003,0.88388810354,0.0,0.0,0.0267035375555,0.0,0.0,0.0
906,0.0,0.0,0.467852689379,0.883806461303,0.0,0.0,-0.0160570291183,0.0,0.0,0.0
907,0.0,0.0,0.467544154228,0.8839697188519999,0.0,0.0,-0.041189770347099995,0.0,0.0,0.0
908,0.0,0.0,0.46661820711199997,0.884458845165,0.0,0.0,-0.0033161255787899995,0.0,0.0,0.0
909,0.0,0.0,0.46769842892700003,0.88388810354,0.0,0.0,0.029670597283900004,0.0,0.0,0.0
910,0.0,0.0,0.467544154228,0.8839697188519999,0.0,0.0,-0.039618974020300006,0.0,0.0,0.0
911,0.0,0.0,0.466463832817,0.884540271935,0.0,0.0,0.0116937059884,0.0,0.0,0.0
912,0.0,0.0,0.46731271547700004,0.8840920913310001,0.0,0.0,0.0380481776935,0.0,0.0,0.0
913,0.0,0.0,0.467389865287,0.884051307237,0.0,0.0,-0.0354301838155,0.0,0.0,0.0
914,0.0,0.0,0.466541021741,0.8844995619179999,0.0,0.0,0.012391837689200002,0.0,0.0,0.0
915,0.0,0.0,0.467389865287,0.884051307237,0.0,0.0,0.0342084533391,0.0,0.0,0.0
916,0.0,0.0,0.46731271547700004,0.8840920913310001,0.0,0.0,-0.0443313630007,0.0,0.0,0.0
917,0.0,0.0,0.46638664033999994,0.884580975215,0.0,0.0,-0.00244346095279,0.0,0.0,0.0
918,0.0,0.0,0.467389865287,0.884051307237,0.0,0.0,0.0329867228627,0.0,0.0,0.0
919,0.0,0.0,0.467467011537,0.884010516411,0.0,0.0,-0.025830872929500003,0.0,0.0,0.0
920,0.0,0.0,0.466463832817,0.884540271935,0.0,0.0,0.00750491578358,0.0,0.0,0.0
921,0.0,0.0,0.46684974190300005,0.884336654496,0.0,0.0,0.0572467994654,0.0,0.0,0.0
922,0.0,0.0,0.468238278148,0.883602237931,0.0,0.0,0.014137166941200001,0.0,0.0,0.0
923,0.0,0.0,0.467929814261,0.883765630089,0.0,0.0,-0.0321140582367,0.0,0.0,0.0
924,0.0,0.0,0.46769842892700003,0.88388810354,0.0,0.0,-0.030717794835099996,0.0,0.0,0.0
925,0.0,0.0,0.467467011537,0.884010516411,0.0,0.0,0.0181514242207,0.0,0.0,0.0
926,0.0,0.0,0.467929814261,0.883765630089,0.0,0.0,0.042411500823499995,0.0,0.0,0.0
927,0.0,0.0,0.46831538520599997,0.883561373069,0.0,0.0,-0.00942477796077,0.0,0.0,0.0
928,0.0,0.0,0.46800693557899997,0.8837247921439999,0.0,0.0,-0.0466002910282,0.0,0.0,0.0
929,0.0,0.0,0.46731271547700004,0.8840920913310001,0.0,0.0,0.015358897417600001,0.0,0.0,0.0
930,0.0,0.0,0.467467011537,0.884010516411,0.0,0.0,0.023561944901900004,0.0,0.0,0.0
931,0.0,0.0,0.468238278148,0.883602237931,0.0,0.0,0.0431096325243,0.0,0.0,0.0
932,0.0,0.0,0.467775560934,0.8838472857870001,0.0,0.0,-0.04921828490619999,0.0,0.0,0.0
933,0.0,0.0,0.467544154228,0.8839697188519999,0.0,0.0,0.028972465583099998,0.0,0.0,0.0
934,0.0,0.0,0.468469588624,0.883479623158,0.0,0.0,0.0202458193231,0.0,0.0,0.0
935,0.0,0.0,0.468084053333,0.883683947469,0.0,0.0,-0.03525565089030001,0.0,0.0,0.0
936,0.0,0.0,0.467544154228,0.8839697188519999,0.0,0.0,0.0162315620435,0.0,0.0,0.0
937,0.0,0.0,0.46831538520599997,0.883561373069,0.0,0.0,0.0268780704807,0.0,0.0,0.0
938,0.0,0.0,0.468084053333,0.883683947469,0.0,0.0,-0.0331612557879,0.0,0.0,0.0
939,0.0,0.0,0.467389865287,0.884051307237,0.0,0.0,0.007679448708779999,0.0,0.0,0.0
940,0.0,0.0,0.46800693557899997,0.8837247921439999,0.0,0.0,0.0287979326579,0.0,0.0,0.0
941,0.0,0.0,0.468161167523,0.883643096065,0.0,0.0,-0.0324631240871,0.0,0.0,0.0
942,0.0,0.0,0.467467011537,0.884010516411,0.0,0.0,0.0005235987755980001,0.0,0.0,0.0
943,0.0,0.0,0.468469588624,0.883479623158,0.0,0.0,-0.00279252680319,0.0,0.0,0.0
944,0.0,0.0,0.46769842892700003,0.88388810354,0.0,0.0,-0.041189770347099995,0.0,0.0,0.0
945,0.0,0.0,0.467467011537,0.884010516411,0.0,0.0,-0.00610865238198,0.0,0.0,0.0
946,0.0,0.0,0.468084053333,0.883683947469,0.0,0.0,0.0293215314335,0.0,0.0,0.0
947,0.0,0.0,0.468161167523,0.883643096065,0.0,0.0,-0.030717794835099996,0.0,0.0,0.0
948,0.0,0.0,0.467775560934,0.8838472857870001,0.0,0.0,-0.047996554429800005,0.0,0.0,0.0
949,0.0,0.0,0.467235562108,0.884132868692,0.0,0.0,0.0127409035396,0.0,0.0,0.0
950,0.0,0.0,0.467467011537,0.884010516411,0.0,0.0,0.034906585039900004,0.0,0.0,0.0
951,0.0,0.0,0.468392488698,0.883520501477,0.0,0.0,0.00837758040957,0.0,0.0,0.0
952,0.0,0.0,0.46831538520599997,0.883561373069,0.0,0.0,-0.00977384381117,0.0,0.0,0.0
953,0.0,0.0,0.467158405181,0.8841736393200001,0.0,0.0,-0.0286233997327,0.0,0.0,0.0
954,0.0,0.0,0.467852689379,0.883806461303,0.0,0.0,0.045553093477099994,0.0,0.0,0.0
955,0.0,0.0,0.468161167523,0.883643096065,0.0,0.0,0.039793506945500004,0.0,0.0,0.0
956,0.0,0.0,0.468238278148,0.883602237931,0.0,0.0,-0.0375245789179,0.0,0.0,0.0
957,0.0,0.0,0.467775560934,0.8838472857870001,0.0,0.0,-0.0659734457254,0.0,0.0,0.0
958,0.0,0.0,0.467235562108,0.884132868692,0.0,0.0,0.0342084533391,0.0,0.0,0.0
959,0.0,0.0,0.468392488698,0.883520501477,0.0,0.0,0.0249582083035,0.0,0.0,0.0
960,0.0,0.0,0.467544154228,0.8839697188519999,0.0,0.0,-0.0741764932098,0.0,0.0,0.0
961,0.0,0.0,0.467235562108,0.884132868692,0.0,0.0,0.036302848441499995,0.0,0.0,0.0
962,0.0,0.0,0.468392488698,0.883520501477,0.0,0.0,0.026354471705099997,0.0,0.0,0.0
963,0.0,0.0,0.46769842892700003,0.88388810354,0.0,0.0,-0.0764454212374,0.0,0.0,0.0
964,0.0,0.0,0.467158405181,0.8841736393200001,0.0,0.0,0.0415388361975,0.0,0.0,0.0
965,0.0,0.0,0.468238278148,0.883602237931,0.0,0.0,0.0300196631343,0.0,0.0,0.0
966,0.0,0.0,0.467852689379,0.883806461303,0.0,0.0,-0.0677187749774,0.0,0.0,0.0
967,0.0,0.0,0.467004080655,0.8842551603759999,0.0,0.0,0.022863813201099998,0.0,0.0,0.0
968,0.0,0.0,0.468084053333,0.883683947469,0.0,0.0,0.0303687289847,0.0,0.0,0.0
969,0.0,0.0,0.467929814261,0.883765630089,0.0,0.0,-0.054105206811800005,0.0,0.0,0.0
970,0.0,0.0,0.467004080655,0.8842551603759999,0.0,0.0,0.022340214425499997,0.0,0.0,0.0
971,0.0,0.0,0.467235562108,0.884132868692,0.0,0.0,0.034906585039900004,0.0,0.0,0.0
972,0.0,0.0,0.468161167523,0.883643096065,0.0,0.0,0.030892327760299997,0.0,0.0,0.0
973,0.0,0.0,0.467389865287,0.884051307237,0.0,0.0,-0.0668461103514,0.0,0.0,0.0
974,0.0,0.0,0.467004080655,0.8842551603759999,0.0,0.0,-0.041189770347099995,0.0,0.0,0.0
975,0.0,0.0,0.467389865287,0.884051307237,0.0,0.0,0.0403171057211,0.0,0.0,0.0
976,0.0,0.0,0.46831538520599997,0.883561373069,0.0,0.0,0.00314159265359,0.0,0.0,0.0
977,0.0,0.0,0.468084053333,0.883683947469,0.0,0.0,-0.0404916386463,0.0,0.0,0.0
978,0.0,0.0,0.466772567194,0.8843773914540001,0.0,0.0,0.00226892802759,0.0,0.0,0.0
979,0.0,0.0,0.467621293358,0.8839289145620001,0.0,0.0,0.0506145483078,0.0,0.0,0.0
980,0.0,0.0,0.468084053333,0.883683947469,0.0,0.0,0.0483456202802,0.0,0.0,0.0
981,0.0,0.0,0.467775560934,0.8838472857870001,0.0,0.0,-0.0572467994654,0.0,0.0,0.0
982,0.0,0.0,0.46731271547700004,0.8840920913310001,0.0,0.0,-0.05270894341019999,0.0,0.0,0.0
983,0.0,0.0,0.467467011537,0.884010516411,0.0,0.0,0.04502949470150001,0.0,0.0,0.0
984,0.0,0.0,0.468238278148,0.883602237931,0.0,0.0,0.0116937059884,0.0,0.0,0.0
985,0.0,0.0,0.467004080655,0.8842551603759999,0.0,0.0,-0.0528834763354,0.0,0.0,0.0
986,0.0,0.0,0.467081244696,0.884214403215,0.0,0.0,0.0319395253115,0.0,0.0,0.0
987,0.0,0.0,0.46800693557899997,0.8837247921439999,0.0,0.0,0.0171042266695,0.0,0.0,0.0
988,0.0,0.0,0.467467011537,0.884010516411,0.0,0.0,-0.0483456202802,0.0,0.0,0.0
989,0.0,0.0,0.467389865287,0.884051307237,0.0,0.0,0.048171087355,0.0,0.0,0.0
990,0.0,0.0,0.468238278148,0.883602237931,0.0,0.0,0.014835298642,0.0,0.0,0.0
991,0.0,0.0,0.467081244696,0.884214403215,0.0,0.0,0.007679448708779999,0.0,0.0,0.0
992,0.0,0.0,0.467929814261,0.883765630089,0.0,0.0,0.05654866776459999,0.0,0.0,0.0
993,0.0,0.0,0.467852689379,0.883806461303,0.0,0.0,-0.0438077642251,0.0,0.0,0.0
994,0.0,0.0,0.467467011537,0.884010516411,0.0,0.0,-0.0488692190558,0.0,0.0,0.0
995,0.0,0.0,0.467158405181,0.8841736393200001,0.0,0.0,0.0329867228627,0.0,0.0,0.0
996,0.0,0.0,0.467467011537,0.884010516411,0.0,0.0,0.0376991118431,0.0,0.0,0.0
997,0.0,0.0,0.46800693557899997,0.8837247921439999,0.0,0.0,-0.0034906585039899997,0.0,0.0,0.0
998,0.0,0.0,0.467158405181,0.8841736393200001,0.0,0.0,-0.025830872929500003,0.0,0.0,0.0
999,0.0,0.0,0.467081244696,0.884214403215,0.0,0.0,-0.000349065850399,0.0,0.0,0.0
1000,0.0,0.0,0.467852689379,0.883806461303,0.0,0.0,0.029496064358700003,0.0,0.0,0.0
1001,0.0,0.0,0.46769842892700003,0.88388810354,0.0,0.0,-0.028274333882299996,0.0,0.0,0.0
1002,0.0,0.0,0.467389865287,0.884051307237,0.0,0.0,-0.036826447217099996,0.0,0.0,0.0
1003,0.0,0.0,0.467235562108,0.884132868692,0.0,0.0,0.037873644768300005,0.0,0.0,0.0
1004,0.0,0.0,0.467929814261,0.883765630089,0.0,0.0,0.004363323129989999,0.0,0.0,0.0
1005,0.0,0.0,0.467389865287,0.884051307237,0.0,0.0,-0.036826447217099996,0.0,0.0,0.0
1006,0.0,0.0,0.467081244696,0.884214403215,0.0,0.0,-0.028448866807499997,0.0,0.0,0.0
1007,0.0,0.0,0.467467011537,0.884010516411,0.0,0.0,0.03525565089030001,0.0,0.0,0.0
1008,0.0,0.0,0.46769842892700003,0.88388810354,0.0,0.0,-0.00855211333477,0.0,0.0,0.0
1009,0.0,0.0,0.467004080655,0.8842551603759999,0.0,0.0,-0.0275762021815,0.0,0.0,0.0
1010,0.0,0.0,0.467389865287,0.884051307237,0.0,0.0,0.0375245789179,0.0,0.0,0.0
1011,0.0,0.0,0.467775560934,0.8838472857870001,0.0,0.0,-0.006632251157579999,0.0,0.0,0.0
1012,0.0,0.0,0.467621293358,0.8839289145620001,0.0,0.0,-0.0202458193231,0.0,0.0,0.0
1013,0.0,0.0,0.46692691305699996,0.8842959108030001,0.0,0.0,-0.00977384381117,0.0,0.0,0.0
1014,0.0,0.0,0.467467011537,0.884010516411,0.0,0.0,0.014660765716799999,0.0,0.0,0.0
1015,0.0,0.0,0.467544154228,0.8839697188519999,0.0,0.0,0.007679448708779999,0.0,0.0,0.0
1016,0.0,0.0,0.467389865287,0.884051307237,0.0,0.0,-0.022165681500300002,0.0,0.0,0.0
1017,0.0,0.0,0.467081244696,0.884214403215,0.0,0.0,0.017453292519900004,0.0,0.0,0.0
1018,0.0,0.0,0.46731271547700004,0.8840920913310001,0.0,0.0,0.0232128790515,0.0,0.0,0.0
1019,0.0,0.0,0.467621293358,0.8839289145620001,0.0,0.0,0.00157079632679,0.0,0.0,0.0
1020,0.0,0.0,0.467544154228,0.8839697188519999,0.0,0.0,-0.008901179185170001,0.0,0.0,0.0
1021,0.0,0.0,0.467004080655,0.8842551603759999,0.0,0.0,-0.009250245035569999,0.0,0.0,0.0
1022,0.0,0.0,0.467081244696,0.884214403215,0.0,0.0,0.00820304748437,0.0,0.0,0.0
1023,0.0,0.0,0.467544154228,0.8839697188519999,0.0,0.0,0.012217304764,0.0,0.0,0.0
1024,0.0,0.0,0.467544154228,0.8839697188519999,0.0,0.0,0.00418879020479,0.0,0.0,0.0
1025,0.0,0.0,0.467235562108,0.884132868692,0.0,0.0,-0.0300196631343,0.0,0.0,0.0
1026,0.0,0.0,0.46692691305699996,0.8842959108030001,0.0,0.0,0.014660765716799999,0.0,0.0,0.0
1027,0.0,0.0,0.467389865287,0.884051307237,0.0,0.0,0.012217304764,0.0,0.0,0.0
1028,0.0,0.0,0.467081244696,0.884214403215,0.0,0.0,-0.033684854563500004,0.0,0.0,0.0
1029,0.0,0.0,0.46692691305699996,0.8842959108030001,0.0,0.0,0.00837758040957,0.0,0.0,0.0
1030,0.0,0.0,0.467467011537,0.884010516411,0.0,0.0,0.015533430342700001,0.0,0.0,0.0
1031,0.0,0.0,0.467081244696,0.884214403215,0.0,0.0,-0.0343829862643,0.0,0.0,0.0
1032,0.0,0.0,0.46692691305699996,0.8842959108030001,0.0,0.0,0.007853981633970001,0.0,0.0,0.0
1033,0.0,0.0,0.467467011537,0.884010516411,0.0,0.0,0.021118483949099997,0.0,0.0,0.0
1034,0.0,0.0,0.467004080655,0.8842551603759999,0.0,0.0,-0.0406661715715,0.0,0.0,0.0
1035,0.0,0.0,0.46661820711199997,0.884458845165,0.0,0.0,0.0102974425868,0.0,0.0,0.0
1036,0.0,0.0,0.46731271547700004,0.8840920913310001,0.0,0.0,0.0376991118431,0.0,0.0,0.0
1037,0.0,0.0,0.467081244696,0.884214403215,0.0,0.0,-0.0459021593275,0.0,0.0,0.0
1038,0.0,0.0,0.46638664033999994,0.884580975215,0.0,0.0,-0.00244346095279,0.0,0.0,0.0
1039,0.0,0.0,0.467158405181,0.8841736393200001,0.0,0.0,0.0383972435439,0.0,0.0,0.0
1040,0.0,0.0,0.467467011537,0.884010516411,0.0,0.0,0.0329867228627,0.0,0.0,0.0
1041,0.0,0.0,0.466772567194,0.8843773914540001,0.0,0.0,-0.060388392119,0.0,0.0,0.0
1042,0.0,0.0,0.466309444312,0.884621671759,0.0,0.0,0.0204203522483,0.0,0.0,0.0
1043,0.0,0.0,0.466541021741,0.8844995619179999,0.0,0.0,0.036128315516300004,0.0,0.0,0.0
1044,0.0,0.0,0.46731271547700004,0.8840920913310001,0.0,0.0,0.012391837689200002,0.0,0.0,0.0
1045,0.0,0.0,0.467235562108,0.884132868692,0.0,0.0,-0.0280998009571,0.0,0.0,0.0
1046,0.0,0.0,0.466077834922,0.884743720969,0.0,0.0,-0.0256563400043,0.0,0.0,0.0
1047,0.0,0.0,0.466077834922,0.884743720969,0.0,0.0,0.0101229096616,0.0,0.0,0.0
1048,0.0,0.0,0.467235562108,0.884132868692,0.0,0.0,0.0317649923863,0.0,0.0,0.0
1049,0.0,0.0,0.467389865287,0.884051307237,0.0,0.0,0.00994837673637,0.0,0.0,0.0
1050,0.0,0.0,0.46731271547700004,0.8840920913310001,0.0,0.0,-0.0181514242207,0.0,0.0,0.0
1051,0.0,0.0,0.466463832817,0.884540271935,0.0,0.0,-0.0572467994654,0.0,0.0,0.0
1052,0.0,0.0,0.466463832817,0.884540271935,0.0,0.0,0.041189770347099995,0.0,0.0,0.0
1053,0.0,0.0,0.46731271547700004,0.8840920913310001,0.0,0.0,0.0176278254451,0.0,0.0,0.0
1054,0.0,0.0,0.466463832817,0.884540271935,0.0,0.0,-0.0609119908946,0.0,0.0,0.0
1055,0.0,0.0,0.466463832817,0.884540271935,0.0,0.0,0.042411500823499995,0.0,0.0,0.0
1056,0.0,0.0,0.46731271547700004,0.8840920913310001,0.0,0.0,0.0202458193231,0.0,0.0,0.0
1057,0.0,0.0,0.46669538893,0.884418121677,0.0,0.0,-0.05654866776459999,0.0,0.0,0.0
1058,0.0,0.0,0.466541021741,0.8844995619179999,0.0,0.0,0.0371755130675,0.0,0.0,0.0
1059,0.0,0.0,0.46731271547700004,0.8840920913310001,0.0,0.0,0.0176278254451,0.0,0.0,0.0
1060,0.0,0.0,0.465614520325,0.884987637463,0.0,0.0,-0.21170843826699998,0.0,0.0,0.0
1061,0.0,0.0,0.457175541539,0.8893764805859999,0.0,0.0,-0.22410027595600002,0.0,0.0,0.0
1062,0.0,0.0,0.450721748209,0.892664497833,0.0,0.0,-0.29949849964200004,0.0,0.0,0.0
1063,0.0,0.0,0.44033096641400005,0.897835530605,0.0,0.0,-0.55990162404,0.0,0.0,0.0
1064,0.0,0.0,0.42427844691600003,0.90553177718,0.0,0.0,-0.542099265669,0.0,0.0,0.0
1065,0.0,0.0,0.41095753728,0.9116544863889999,0.0,0.0,-0.430398193542,0.0,0.0,0.0
1066,0.0,0.0,0.407454014479,0.913225725703,0.0,0.0,-0.40666171571500004,0.0,0.0,0.0
1067,0.0,0.0,0.395385197406,0.918515403068,0.0,0.0,-0.5597270911150001,0.0,0.0,0.0
1068,0.0,0.0,0.38010198524000005,0.924944582565,0.0,0.0,-0.493753645389,0.0,0.0,0.0
1069,0.0,0.0,0.375900820721,0.926659901464,0.0,0.0,-0.48572513083,0.0,0.0,0.0
1070,0.0,0.0,0.364145422348,0.9313421022280001,0.0,0.0,-0.47647488579400005,0.0,0.0,0.0
1071,0.0,0.0,0.357634606739,0.9338616000579999,0.0,0.0,-0.508414411106,0.0,0.0,0.0
1072,0.0,0.0,0.34497058210299997,0.9386134973899999,0.0,0.0,-0.47630035286899997,0.0,0.0,0.0
1073,0.0,0.0,0.340707751944,0.94016925485,0.0,0.0,-0.497069770968,0.0,0.0,0.0
1074,0.0,0.0,0.32573317362,0.9454617388359999,0.0,0.0,-0.492880980763,0.0,0.0,0.0
1075,0.0,0.0,0.321274189923,0.946986216842,0.0,0.0,-0.5057964172280001,0.0,0.0,0.0
1076,0.0,0.0,0.30893399786,0.951083479494,0.0,0.0,-0.452738407967,0.0,0.0,0.0
1077,0.0,0.0,0.293790089132,0.95586996162,0.0,0.0,-0.47699848456999994,0.0,0.0,0.0
1078,0.0,0.0,0.289616536184,0.9571427594509999,0.0,0.0,-0.479441945523,0.0,0.0,0.0
1079,0.0,0.0,0.27429491304299997,0.9616456211509999,0.0,0.0,-0.462861317629,0.0,0.0,0.0
1080,0.0,0.0,0.270180366714,0.9628097265000001,0.0,0.0,-0.47298422728999995,0.0,0.0,0.0
1081,0.0,0.0,0.257048459954,0.966398514711,0.0,0.0,-0.47874381382200004,0.0,0.0,0.0
1082,0.0,0.0,0.241413816807,0.970422263272,0.0,0.0,-0.51190506961,0.0,0.0,0.0
1083,0.0,0.0,0.22809597992699998,0.9736386516259999,0.0,0.0,-0.5038765550509999,0.0,0.0,0.0
1084,0.0,0.0,0.21209239184700002,0.9772496187369999,0.0,0.0,-0.49043751981000006,0.0,0.0,0.0
1085,0.0,0.0,0.197742884424,0.980253922032,0.0,0.0,-0.5494296485279999,0.0,0.0,0.0
1086,0.0,0.0,0.180604977366,0.9835557138009999,0.0,0.0,-0.53372168526,0.0,0.0,0.0
1087,0.0,0.0,0.166252457562,0.9860832218200001,0.0,0.0,-0.520806248795,0.0,0.0,0.0
1088,0.0,0.0,0.149276482507,0.988795495424,0.0,0.0,-0.522900643898,0.0,0.0,0.0
1089,0.0,0.0,0.135196799498,0.990818765166,0.0,0.0,-0.5167919915160001,0.0,0.0,0.0
1090,0.0,0.0,0.12827634114,0.9917384636609999,0.0,0.0,-0.496720705118,0.0,0.0,0.0
1091,0.0,0.0,0.11433031219499999,0.993442791364,0.0,0.0,-0.508414411106,0.0,0.0,0.0
1092,0.0,0.0,0.0985382043742,0.995133268602,0.0,0.0,-0.49078658566100003,0.0,0.0,0.0
1093,0.0,0.0,0.0939345535441,0.995578374439,0.0,0.0,-0.5056218843029999,0.0,0.0,0.0
1094,0.0,0.0,0.0801989243289,0.996778878456,0.0,0.0,-0.496022573417,0.0,0.0,0.0
1095,0.0,0.0,0.0639227042887,0.997954852624,0.0,0.0,-0.491135651511,0.0,0.0,0.0
1096,0.0,0.0,0.0593934862086,0.998234648665,0.0,0.0,-0.495673507566,0.0,0.0,0.0
1097,0.0,0.0,0.045798866936499996,0.998950681359,0.0,0.0,-0.46495571273100006,0.0,0.0,0.0
1098,0.0,0.0,0.0295790159191,0.999562445182,0.0,0.0,-0.5162683927399999,0.0,0.0,0.0
1099,0.0,0.0,0.0247811383077,0.999692900437,0.0,0.0,-0.5153957281139999,0.0,0.0,0.0
1100,0.0,0.0,0.00767937322778,0.999970513179,0.0,0.0,-0.511381470834,0.0,0.0,0.0
1101,0.0,0.0,-0.00357791733276,0.999993599233,0.0,0.0,-0.293738913111,0.0,0.0,0.0
1102,0.0,0.0,-0.0117806999367,0.9999306051469999,0.0,0.0,-0.280125344945,0.0,0.0,0.0
1103,0.0,0.0,-0.0206806771978,0.999786131926,0.0,0.0,-0.38973202196999995,0.0,0.0,0.0
1104,0.0,0.0,-0.033155178388499996,0.999450215942,0.0,0.0,-0.311366738556,0.0,0.0,0.0
1105,0.0,0.0,-0.03577161632530001,0.999359990927,0.0,0.0,-0.272794962087,0.0,0.0,0.0
1106,0.0,0.0,-0.0403061842411,0.9991873755769999,0.0,0.0,0.00314159265359,0.0,0.0,0.0
1107,0.0,0.0,-0.040654963969300004,0.9991732451909999,0.0,0.0,-0.0684169066782,0.0,0.0,0.0
1108,0.0,0.0,-0.042224410831199995,0.9991081518680001,0.0,0.0,-0.0933751149817,0.0,0.0,0.0
1109,0.0,0.0,-0.047193620116099996,0.998885760345,0.0,0.0,-0.127409035396,0.0,0.0,0.0
1110,0.0,0.0,-0.0491112549539,0.9987933142730001,0.0,0.0,-0.0317649923863,0.0,0.0,0.0
1111,0.0,0.0,-0.0493727367461,0.998780422749,0.0,0.0,-0.0370009801423,0.0,0.0,0.0
1112,0.0,0.0,-0.0515516183793,0.998670331312,0.0,0.0,-0.0856956662729,0.0,0.0,0.0
1113,0.0,0.0,-0.05277168558180001,0.998606603824,0.0,0.0,-0.08901179185170001,0.0,0.0,0.0
1114,0.0,0.0,-0.0547759098534,0.998498672858,0.0,0.0,-0.0567232006898,0.0,0.0,0.0
1115,0.0,0.0,-0.0576511484991,0.9983367894040001,0.0,0.0,-0.11239920382799999,0.0,0.0,0.0
1116,0.0,0.0,-0.0586094563111,0.9982809883149999,0.0,0.0,-0.100880030765,0.0,0.0,0.0
1117,0.0,0.0,-0.0600903709313,0.9981929409289999,0.0,0.0,-0.0216420827247,0.0,0.0,0.0
1118,0.0,0.0,-0.060264587549,0.998182437978,0.0,0.0,-0.010821041362399999,0.0,0.0,0.0
1119,0.0,0.0,-0.061484052174899995,0.998108065957,0.0,0.0,-0.09267698328089999,0.0,0.0,0.0
1120,0.0,0.0,-0.0627034250282,0.9980322041349999,0.0,0.0,-0.138928208459,0.0,0.0,0.0
1121,0.0,0.0,-0.0683635440257,0.9976604762379999,0.0,0.0,-0.160919357034,0.0,0.0,0.0
1122,0.0,0.0,-0.07097517578319999,0.9974780821770001,0.0,0.0,-0.0438077642251,0.0,0.0,0.0
1123,0.0,0.0,-0.0711492674688,0.997465679479,0.0,0.0,-0.0160570291183,0.0,0.0,0.0
1124,0.0,0.0,-0.0718456124849,0.997415764848,0.0,0.0,-0.044680428851100004,0.0,0.0,0.0
1125,0.0,0.0,-0.07236784828580001,0.997378009851,0.0,0.0,-0.0575958653158,0.0,0.0,0.0
1126,0.0,0.0,-0.0736733506747,0.9972824260959999,0.0,0.0,-0.051138147083400004,0.0,0.0,0.0
1127,0.0,0.0,-0.0745436156069,0.9972177542399999,0.0,0.0,-0.0610865238198,0.0,0.0,0.0
1128,0.0,0.0,-0.0758489063577,0.997119322551,0.0,0.0,-0.08307767239489999,0.0,0.0,0.0
1129,0.0,0.0,-0.0791550561451,0.996862316013,0.0,0.0,-0.08482300164689999,0.0,0.0,0.0
1130,0.0,0.0,-0.0801119386569,0.996785873337,0.0,0.0,-0.0205948851735,0.0,0.0,0.0
1131,0.0,0.0,-0.082286395708,0.996608724165,0.0,0.0,-0.127583568321,0.0,0.0,0.0
1132,0.0,0.0,-0.08724267680299999,0.996187088525,0.0,0.0,-0.172962128873,0.0,0.0,0.0
1133,0.0,0.0,-0.0902849454487,0.995915974681,0.0,0.0,-0.0275762021815,0.0,0.0,0.0
1134,0.0,0.0,-0.09071948716119999,0.9958764856389999,0.0,0.0,-0.023387411976700002,0.0,0.0,0.0
1135,0.0,0.0,-0.0919361118067,0.995764907669,0.0,0.0,-0.0553269372882,0.0,0.0,0.0
1136,0.0,0.0,-0.09341325707380001,0.995627421982,0.0,0.0,-0.056897733614999994,0.0,0.0,0.0
1137,0.0,0.0,-0.09610634334799999,0.995371071896,0.0,0.0,-0.106290551446,0.0,0.0,0.0
1138,0.0,0.0,-0.0971486406103,0.9952698838140001,0.0,0.0,-0.113620934305,0.0,0.0,0.0
1139,0.0,0.0,-0.099406584345,0.995046898889,0.0,0.0,-0.0329867228627,0.0,0.0,0.0
1140,0.0,0.0,-0.099406584345,0.995046898889,0.0,0.0,0.0020943951023900003,0.0,0.0,0.0
1141,0.0,0.0,-0.100101233848,0.99497725752,0.0,0.0,-0.0581194640914,0.0,0.0,0.0
1142,0.0,0.0,-0.10096947707800001,0.994889523866,0.0,0.0,-0.09965830028889999,0.0,0.0,0.0
1143,0.0,0.0,-0.10470203849,0.994503636562,0.0,0.0,-0.09634217471010001,0.0,0.0,0.0
1144,0.0,0.0,-0.106090525009,0.9943564755679999,0.0,0.0,-0.028274333882299996,0.0,0.0,0.0
1145,0.0,0.0,-0.10635084328700001,0.994328667057,0.0,0.0,-0.021816615649900003,0.0,0.0,0.0
1146,0.0,0.0,-0.107739083894,0.994179204068,0.0,0.0,-0.069987703005,0.0,0.0,0.0
1147,0.0,0.0,-0.108433125601,0.994103745729,0.0,0.0,-0.0774926187885,0.0,0.0,0.0
1148,0.0,0.0,-0.10999452569700001,0.993932193018,0.0,0.0,-0.0317649923863,0.0,0.0,0.0
1149,0.0,0.0,-0.111295485288,0.993787359023,0.0,0.0,-0.0605629250442,0.0,0.0,0.0
1150,0.0,0.0,-0.113636730484,0.993522366877,0.0,0.0,-0.0888372589265,0.0,0.0,0.0
1151,0.0,0.0,-0.11511052499600001,0.9933526901530001,0.0,0.0,-0.005759586531579999,0.0,0.0,0.0
1152,0.0,0.0,-0.11623737355999998,0.9932214622069999,0.0,0.0,-0.07888888219010001,0.0,0.0,0.0
1153,0.0,0.0,-0.119790293837,0.992799217114,0.0,0.0,-0.11414453308,0.0,0.0,0.0
1154,0.0,0.0,-0.121263008763,0.9926204121950001,0.0,0.0,0.0102974425868,0.0,0.0,0.0
1155,0.0,0.0,-0.121609491257,0.992578022946,0.0,0.0,-0.04206243497309999,0.0,0.0,0.0
1156,0.0,0.0,-0.12438081422,0.992234555463,0.0,0.0,-0.10506882097,0.0,0.0,0.0
1157,0.0,0.0,-0.126285537418,0.9919939329649999,0.0,0.0,-0.035604716740699996,0.0,0.0,0.0
1158,0.0,0.0,-0.127324281602,0.991861143162,0.0,0.0,-0.0438077642251,0.0,0.0,0.0
1159,0.0,0.0,-0.128968673884,0.991648668207,0.0,0.0,-0.0642281164734,0.0,0.0,0.0
1160,0.0,0.0,-0.130180104731,0.991490363207,0.0,0.0,-0.015533430342700001,0.0,0.0,0.0
1161,0.0,0.0,-0.130439671837,0.9914562481579999,0.0,0.0,-0.029496064358700003,0.0,0.0,0.0
1162,0.0,0.0,-0.13242938799,0.99119244206,0.0,0.0,-0.0925024503557,0.0,0.0,0.0
1163,0.0,0.0,-0.133294316036,0.991076498214,0.0,0.0,-0.10332349171800001,0.0,0.0,0.0
1164,0.0,0.0,-0.135802030977,0.9907359932809999,0.0,0.0,-0.0251327412287,0.0,0.0,0.0
1165,0.0,0.0,-0.135802030977,0.9907359932809999,0.0,0.0,0.009250245035569999,0.0,0.0,0.0
1166,0.0,0.0,-0.136147854798,0.990688529071,0.0,0.0,-0.054105206811800005,0.0,0.0,0.0
1167,0.0,0.0,-0.138568154691,0.990352899983,0.0,0.0,-0.09162978572969999,0.0,0.0,0.0
1168,0.0,0.0,-0.139345933222,0.990243763371,0.0,0.0,-0.07923794804050001,0.0,0.0,0.0
1169,0.0,0.0,-0.139864404519,0.990170666273,0.0,0.0,0.0310668606855,0.0,0.0,0.0
1170,0.0,0.0,-0.13969158500700002,0.990195062136,0.0,0.0,0.00872664625997,0.0,0.0,0.0
1171,0.0,0.0,-0.141333197824,0.989962083715,0.0,0.0,-0.09634217471010001,0.0,0.0,0.0
1172,0.0,0.0,-0.14470160186,0.9894753389650001,0.0,0.0,-0.0809832772925,0.0,0.0,0.0
1173,0.0,0.0,-0.14591036574400001,0.9892978141940001,0.0,0.0,-0.0390953752447,0.0,0.0,0.0
1174,0.0,0.0,-0.147723102651,0.9890287584,0.0,0.0,-0.0555014702134,0.0,0.0,0.0
1175,0.0,0.0,-0.148672433897,0.9888864987450001,0.0,0.0,-0.011868238913600001,0.0,0.0,0.0
1176,0.0,0.0,-0.14875872995699999,0.988873520862,0.0,0.0,-0.0181514242207,0.0,0.0,0.0
1177,0.0,0.0,-0.150484412391,0.988612381891,0.0,0.0,-0.0719075651822,0.0,0.0,0.0
1178,0.0,0.0,-0.15177837367799998,0.988414551331,0.0,0.0,-0.0179768912955,0.0,0.0,0.0
1179,0.0,0.0,-0.152468380166,0.988308349175,0.0,0.0,-0.0518362787842,0.0,0.0,0.0
1180,0.0,0.0,-0.155658688263,0.987810899296,0.0,0.0,-0.14276793281300001,0.0,0.0,0.0
1181,0.0,0.0,-0.158675054211,0.987330860032,0.0,0.0,-0.039968039870699995,0.0,0.0,0.0
1182,0.0,0.0,-0.158330401065,0.987386187922,0.0,0.0,0.027227136331099997,0.0,0.0,0.0
1183,0.0,0.0,-0.159536602398,0.987192013995,0.0,0.0,-0.0766199541626,0.0,0.0,0.0
1184,0.0,0.0,-0.160311891908,0.987066409778,0.0,0.0,-0.0869173967493,0.0,0.0,0.0
1185,0.0,0.0,-0.161689939895,0.986841610055,0.0,0.0,-0.0202458193231,0.0,0.0,0.0
1186,0.0,0.0,-0.161776057456,0.986827496189,0.0,0.0,0.0012217304764,0.0,0.0,0.0
1187,0.0,0.0,-0.161948288881,0.98679924591,0.0,0.0,-0.028274333882299996,0.0,0.0,0.0
1188,0.0,0.0,-0.16229273692500001,0.9867426551749999,0.0,0.0,-0.045553093477099994,0.0,0.0,0.0
1189,0.0,0.0,-0.16435900845100002,0.986400586142,0.0,0.0,-0.0532325421858,0.0,0.0,0.0
1190,0.0,0.0,-0.165305809168,0.9862423583759999,0.0,0.0,-0.033684854563500004,0.0,0.0,0.0
1191,0.0,0.0,-0.165650062618,0.986184595679,0.0,0.0,-0.0483456202802,0.0,0.0,0.0
1192,0.0,0.0,-0.16728499015,0.985908582005,0.0,0.0,-0.0338593874887,0.0,0.0,0.0
1193,0.0,0.0,-0.16745706111,0.98587937025,0.0,0.0,-0.0169296937443,0.0,0.0,0.0
1194,0.0,0.0,-0.167801187722,0.9858208566459999,0.0,0.0,-0.0012217304764,0.0,0.0,0.0
1195,0.0,0.0,-0.16891945778700002,0.9856298578980001,0.0,0.0,-0.0549778714378,0.0,0.0,0.0
1196,0.0,0.0,-0.17072543417999997,0.985318641925,0.0,0.0,-0.06527531402459999,0.0,0.0,0.0
1197,0.0,0.0,-0.171585221787,0.985169280715,0.0,0.0,-0.0115191730632,0.0,0.0,0.0
1198,0.0,0.0,-0.17304656048300002,0.9849136448970001,0.0,0.0,-0.09948376736369999,0.0,0.0,0.0
1199,0.0,0.0,-0.177342396056,0.984149213565,0.0,0.0,-0.11711159280899999,0.0,0.0,0.0
1200,0.0,0.0,-0.178458763563,0.983947391738,0.0,0.0,0.014660765716799999,0.0,0.0,0.0
1201,0.0,0.0,-0.17863049206,0.983916229822,0.0,0.0,-0.0497418836818,0.0,0.0,0.0
1202,0.0,0.0,-0.18069080810600002,0.983539949298,0.0,0.0,-0.054454272662199994,0.0,0.0,0.0
1203,0.0,0.0,-0.181377404435,0.983413563645,0.0,0.0,-0.004014257279590001,0.0,0.0,0.0
1204,0.0,0.0,-0.18172066947,0.983350191075,0.0,0.0,-0.039793506945500004,0.0,0.0,0.0
1205,0.0,0.0,-0.183865572622,0.9829513981899999,0.0,0.0,-0.08395033702089999,0.0,0.0,0.0
1206,0.0,0.0,-0.185495114273,0.982645186515,0.0,0.0,-0.0406661715715,0.0,0.0,0.0
1207,0.0,0.0,-0.185923856449,0.982564155464,0.0,0.0,-0.0452040276267,0.0,0.0,0.0
1208,0.0,0.0,-0.18763847036200001,0.982238160753,0.0,0.0,-0.0741764932098,0.0,0.0,0.0
1209,0.0,0.0,-0.188238450464,0.9821233556769999,0.0,0.0,-0.0619591884458,0.0,0.0,0.0
1210,0.0,0.0,-0.188152743316,0.982139778841,0.0,0.0,0.0240855436775,0.0,0.0,0.0
1211,0.0,0.0,-0.18806703473499997,0.982156194526,0.0,0.0,0.0034906585039899997,0.0,0.0,0.0
1212,0.0,0.0,-0.189438199716,0.981892646112,0.0,0.0,-0.08761552845010001,0.0,0.0,0.0
1213,0.0,0.0,-0.191665553932,0.981460297432,0.0,0.0,-0.0485201532054,0.0,0.0,0.0
1214,0.0,0.0,-0.19183684814899998,0.9814268305339999,0.0,0.0,-0.00296705972839,0.0,0.0,0.0
1215,0.0,0.0,-0.191665553932,0.981460297432,0.0,0.0,-0.041713369122699996,0.0,0.0,0.0
1216,0.0,0.0,-0.192350695715,0.981326250468,0.0,0.0,-0.08604473212330001,0.0,0.0,0.0
1217,0.0,0.0,-0.195860568724,0.98063175434,0.0,0.0,-0.134390352404,0.0,0.0,0.0
1218,0.0,0.0,-0.196887376316,0.980426111978,0.0,0.0,0.036826447217099996,0.0,0.0,0.0
1219,0.0,0.0,-0.196373999438,0.980529067567,0.0,0.0,-0.0274016692563,0.0,0.0,0.0
1220,0.0,0.0,-0.198854819736,0.9800289590960001,0.0,0.0,-0.0766199541626,0.0,0.0,0.0
1221,0.0,0.0,-0.199709980514,0.979855052384,0.0,0.0,0.00610865238198,0.0,0.0,0.0
1222,0.0,0.0,-0.199282419096,0.979942099024,0.0,0.0,-0.014835298642,0.0,0.0,0.0
1223,0.0,0.0,-0.200992436314,0.979592793228,0.0,0.0,-0.0781907504893,0.0,0.0,0.0
1224,0.0,0.0,-0.20218908438299998,0.979346503622,0.0,0.0,-0.00994837673637,0.0,0.0,0.0
1225,0.0,0.0,-0.20278729535700002,0.9792228106219999,0.0,0.0,-0.0457276264023,0.0,0.0,0.0
1226,0.0,0.0,-0.204068920917,0.978956523813,0.0,0.0,-0.022165681500300002,0.0,0.0,0.0
1227,0.0,0.0,-0.203898057664,0.978992125648,0.0,0.0,0.00977384381117,0.0,0.0,0.0
1228,0.0,0.0,-0.20458147335700003,0.978849539387,0.0,0.0,-0.0548033385126,0.0,0.0,0.0
1229,0.0,0.0,-0.206887263232,0.9783647889779999,0.0,0.0,-0.053407075111,0.0,0.0,0.0
1230,0.0,0.0,-0.207143391442,0.978310592492,0.0,0.0,-0.015533430342700001,0.0,0.0,0.0
1231,0.0,0.0,-0.206887263232,0.9783647889779999,0.0,0.0,-0.009075712110370001,0.0,0.0,0.0
1232,0.0,0.0,-0.207143391442,0.978310592492,0.0,0.0,-0.0382227106187,0.0,0.0,0.0
1233,0.0,0.0,-0.21004518135699998,0.977691680331,0.0,0.0,-0.10978120994999999,0.0,0.0,0.0
1234,0.0,0.0,-0.21089829821400002,0.977508009077,0.0,0.0,-0.09389871375730001,0.0,0.0,0.0
1235,0.0,0.0,-0.21141009127799998,0.977397448997,0.0,0.0,0.047298422729,0.0,0.0,0.0
1236,0.0,0.0,-0.21132479645500002,0.977415894286,0.0,0.0,-0.0546288055874,0.0,0.0,0.0
1237,0.0,0.0,-0.21200710992199998,0.9772681235680001,0.0,0.0,-0.069987703005,0.0,0.0,0.0
1238,0.0,0.0,-0.213627189669,0.9769152592899999,0.0,0.0,-0.0185004900711,0.0,0.0,0.0
1239,0.0,0.0,-0.213627189669,0.9769152592899999,0.0,0.0,0.007853981633970001,0.0,0.0,0.0
1240,0.0,0.0,-0.21294512215300002,0.977064161123,0.0,0.0,-0.0020943951023900003,0.0,0.0,0.0
1241,0.0,0.0,-0.215161460387,0.9765784894030001,0.0,0.0,-0.0993092344385,0.0,0.0,0.0
1242,0.0,0.0,-0.217632222696,0.9760308476909999,0.0,0.0,-0.056025068989000004,0.0,0.0,0.0
1243,0.0,0.0,-0.217972908468,0.975954820253,0.0,0.0,-0.00715584993318,0.0,0.0,0.0
1244,0.0,0.0,-0.218739354284,0.975783323739,0.0,0.0,-0.0434586983747,0.0,0.0,0.0
1245,0.0,0.0,-0.21907995358600002,0.9757069098540001,0.0,0.0,0.0157079632679,0.0,0.0,0.0
1246,0.0,0.0,-0.218654200292,0.9758024086329999,0.0,0.0,0.0,0.0,0.0,0.0
1247,0.0,0.0,-0.219675938108,0.975572899489,0.0,0.0,-0.0539306738866,0.0,0.0,0.0
1248,0.0,0.0,-0.22103788026500001,0.975265223151,0.0,0.0,-0.0197222205475,0.0,0.0,0.0
1249,0.0,0.0,-0.22129319652600002,0.975207322148,0.0,0.0,-0.0134390352404,0.0,0.0,0.0
1250,0.0,0.0,-0.222399391499,0.974955645484,0.0,0.0,-0.04084070449669999,0.0,0.0,0.0
1251,0.0,0.0,-0.222994916479,0.97481960753,0.0,0.0,-0.00750491578358,0.0,0.0,0.0
1252,0.0,0.0,-0.222994916479,0.97481960753,0.0,0.0,-0.0134390352404,0.0,0.0,0.0
1253,0.0,0.0,-0.224270760949,0.9745268727869999,0.0,0.0,-0.06579891280019999,0.0,0.0,0.0
1254,0.0,0.0,-0.225461202458,0.974252147129,0.0,0.0,0.007853981633970001,0.0,0.0,0.0
1255,0.0,0.0,-0.225206136118,0.974311139346,0.0,0.0,0.027052603405900003,0.0,0.0,0.0
1256,0.0,0.0,-0.225291159947,0.974291482694,0.0,0.0,-0.0383972435439,0.0,0.0,0.0
1257,0.0,0.0,-0.225801266869,0.9741733869700001,0.0,0.0,-0.0575958653158,0.0,0.0,0.0
1258,0.0,0.0,-0.227416196389,0.973797655378,0.0,0.0,-0.03525565089030001,0.0,0.0,0.0
1259,0.0,0.0,-0.22767112822299998,0.973738084586,0.0,0.0,-0.0193731546971,0.0,0.0,0.0
1260,0.0,0.0,-0.227246233173,0.97383733216,0.0,0.0,0.0134390352404,0.0,0.0,0.0
1261,0.0,0.0,-0.22826590845400002,0.973598826539,0.0,0.0,-0.0727802298082,0.0,0.0,0.0
1262,0.0,0.0,-0.22903050070300002,0.97341924665,0.0,0.0,-0.0808087443673,0.0,0.0,0.0
1263,0.0,0.0,-0.230813999056,0.972997892002,0.0,0.0,-0.0188495559215,0.0,0.0,0.0
1264,0.0,0.0,-0.23072908809300002,0.9730180306180001,0.0,0.0,0.014137166941200001,0.0,0.0,0.0
1265,0.0,0.0,-0.230559260896,0.9730582856209999,0.0,0.0,-0.023561944901900004,0.0,0.0,0.0
1266,0.0,0.0,-0.23276646475499999,0.972532659033,0.0,0.0,-0.08307767239489999,0.0,0.0,0.0
1267,0.0,0.0,-0.233954463532,0.972247555406,0.0,0.0,-0.0019198621771900001,0.0,0.0,0.0
1268,0.0,0.0,-0.233445363856,0.9723699203980001,0.0,0.0,-0.007679448708779999,0.0,0.0,0.0
1269,0.0,0.0,-0.234463499069,0.9721249238680001,0.0,0.0,-0.0478220215046,0.0,0.0,0.0
1270,0.0,0.0,-0.234887646252,0.9720225273309999,0.0,0.0,0.026005405854700004,0.0,0.0,0.0
1271,0.0,0.0,-0.234124149178,0.9722067078409999,0.0,0.0,-0.000698131700798,0.0,0.0,0.0
1272,0.0,0.0,-0.235142113103,0.9719610005789999,0.0,0.0,-0.0619591884458,0.0,0.0,0.0
1273,0.0,0.0,-0.23624461632899998,0.971693614909,0.0,0.0,-0.00157079632679,0.0,0.0,0.0
1274,0.0,0.0,-0.236075020203,0.9717348325730001,0.0,0.0,-0.00558505360638,0.0,0.0,0.0
1275,0.0,0.0,-0.23717726625,0.9714663887,0.0,0.0,-0.058992128717400005,0.0,0.0,0.0
1276,0.0,0.0,-0.23802494018399997,0.9712590426090001,0.0,0.0,0.00418879020479,0.0,0.0,0.0
1277,0.0,0.0,-0.23751635753400002,0.971383539033,0.0,0.0,-0.00593411945678,0.0,0.0,0.0
1278,0.0,0.0,-0.237770657007,0.971321324108,0.0,0.0,-0.036826447217099996,0.0,0.0,0.0
1279,0.0,0.0,-0.23912664521,0.970988386929,0.0,0.0,-0.042935099599099996,0.0,0.0,0.0
1280,0.0,0.0,-0.23938084117699998,0.970925750445,0.0,0.0,-0.0256563400043,0.0,0.0,0.0
1281,0.0,0.0,-0.23938084117699998,0.970925750445,0.0,0.0,-0.00314159265359,0.0,0.0,0.0
1282,0.0,0.0,-0.239465569521,0.970904856829,0.0,0.0,-0.022165681500300002,0.0,0.0,0.0
1283,0.0,0.0,-0.241413816807,0.970422263272,0.0,0.0,-0.0677187749774,0.0,0.0,0.0
1284,0.0,0.0,-0.241667864485,0.970359028028,0.0,0.0,0.026529004630299998,0.0,0.0,0.0
1285,0.0,0.0,-0.241498501205,0.970401192248,0.0,0.0,0.014311699866400001,0.0,0.0,0.0
1286,0.0,0.0,-0.242345243936,0.970190075574,0.0,0.0,-0.0610865238198,0.0,0.0,0.0
1287,0.0,0.0,-0.24302250527,0.9700206502609999,0.0,0.0,-0.07888888219010001,0.0,0.0,0.0
1288,0.0,0.0,-0.244630525623,0.969616370496,0.0,0.0,-0.0165806278939,0.0,0.0,0.0
1289,0.0,0.0,-0.24403817508200001,0.969765625862,0.0,0.0,-0.0125663706144,0.0,0.0,0.0
1290,0.0,0.0,-0.24581495262800002,0.969316774365,0.0,0.0,-0.0912807198793,0.0,0.0,0.0
1291,0.0,0.0,-0.248182704141,0.968713242072,0.0,0.0,-0.026005405854700004,0.0,0.0,0.0
1292,0.0,0.0,-0.247337247968,0.968929453452,0.0,0.0,0.046251225177800004,0.0,0.0,0.0
1293,0.0,0.0,-0.24868988716499998,0.968583161129,0.0,0.0,-0.0837758040957,0.0,0.0,0.0
1294,0.0,0.0,-0.24961954553000004,0.968343989752,0.0,0.0,0.0195476876223,0.0,0.0,0.0
1295,0.0,0.0,-0.248520833726,0.9686265509499999,0.0,0.0,0.0237364778271,0.0,0.0,0.0
1296,0.0,0.0,-0.250295516281,0.968169486469,0.0,0.0,-0.102450827092,0.0,0.0,0.0
1297,0.0,0.0,-0.25274488521,0.967532957062,0.0,0.0,-0.058992128717400005,0.0,0.0,0.0
1298,0.0,0.0,-0.252407137104,0.967621122723,0.0,0.0,0.0324631240871,0.0,0.0,0.0
1299,0.0,0.0,-0.252998176081,0.967466755449,0.0,0.0,-0.0677187749774,0.0,0.0,0.0
1300,0.0,0.0,-0.254179970591,0.967156937911,0.0,0.0,0.0109955742876,0.0,0.0,0.0
1301,0.0,0.0,-0.253926760789,0.967223448927,0.0,0.0,0.0253072741539,0.0,0.0,0.0
1302,0.0,0.0,-0.253335870266,0.967378383486,0.0,0.0,0.00261799387799,0.0,0.0,0.0
1303,0.0,0.0,-0.254348767449,0.967112560407,0.0,0.0,-0.0483456202802,0.0,0.0,0.0
1304,0.0,0.0,-0.254770725683,0.967001487762,0.0,0.0,-0.046425758103,0.0,0.0,0.0
1305,0.0,0.0,-0.255108257352,0.9669124970909999,0.0,0.0,0.013788101090799998,0.0,0.0,0.0
1306,0.0,0.0,-0.2549394954,0.9669570071539999,0.0,0.0,0.007853981633970001,0.0,0.0,0.0
1307,0.0,0.0,-0.25519263541299997,0.9668902310140001,0.0,0.0,-0.022165681500300002,0.0,0.0,0.0
1308,0.0,0.0,-0.255361385706,0.966845676771,0.0,0.0,-0.0202458193231,0.0,0.0,0.0
1309,0.0,0.0,-0.255445757936,0.9668233886040001,0.0,0.0,0.0111701072128,0.0,0.0,0.0
1310,0.0,0.0,-0.255361385706,0.966845676771,0.0,0.0,0.0116937059884,0.0,0.0,0.0
1311,0.0,0.0,-0.255445757936,0.9668233886040001,0.0,0.0,-0.017453292519900004,0.0,0.0,0.0
1312,0.0,0.0,-0.256373723929,0.966577732869,0.0,0.0,-0.0373500459927,0.0,0.0,0.0
1313,0.0,0.0,-0.256711107581,0.966488182672,0.0,0.0,-0.0314159265359,0.0,0.0,0.0
1314,0.0,0.0,-0.257638751216,0.9662413124429999,0.0,0.0,-0.039618974020300006,0.0,0.0,0.0
1315,0.0,0.0,-0.25881904510299997,0.965925826289,0.0,0.0,-0.050090949532199995,0.0,0.0,0.0
1316,0.0,0.0,-0.259240485101,0.965812803231,0.0,0.0,0.0335103216383,0.0,0.0,0.0
1317,0.0,0.0,-0.258903337047,0.965903236389,0.0,0.0,-0.0165806278939,0.0,0.0,0.0
1318,0.0,0.0,-0.260335997913,0.965518082788,0.0,0.0,-0.0633554518474,0.0,0.0,0.0
1319,0.0,0.0,-0.26084150629,0.9653816388330001,0.0,0.0,-0.053407075111,0.0,0.0,0.0
1320,0.0,0.0,-0.26126270865,0.965267733362,0.0,0.0,0.0190240888467,0.0,0.0,0.0
1321,0.0,0.0,-0.26084150629,0.9653816388330001,0.0,0.0,-0.0415388361975,0.0,0.0,0.0
1322,0.0,0.0,-0.262778624716,0.9648561521760001,0.0,0.0,-0.0637045176978,0.0,0.0,0.0
1323,0.0,0.0,-0.262778624716,0.9648561521760001,0.0,0.0,0.057421332390599995,0.0,0.0,0.0
1324,0.0,0.0,-0.261936528931,0.965085102367,0.0,0.0,-0.027227136331099997,0.0,0.0,0.0
1325,0.0,0.0,-0.262778624716,0.9648561521760001,0.0,0.0,-0.07574728953660001,0.0,0.0,0.0
1326,0.0,0.0,-0.264630530127,0.9643498755769999,0.0,0.0,-0.043982297150300005,0.0,0.0,0.0
1327,0.0,0.0,-0.264041392973,0.964511349232,0.0,0.0,0.048171087355,0.0,0.0,0.0
1328,0.0,0.0,-0.263620520384,0.9646264672050001,0.0,0.0,0.033684854563500004,0.0,0.0,0.0
1329,0.0,0.0,-0.264714684522,0.9643267785340001,0.0,0.0,-0.0685914396034,0.0,0.0,0.0
1330,0.0,0.0,-0.266313234265,0.9638865396170001,0.0,0.0,-0.034906585039900004,0.0,0.0,0.0
1331,0.0,0.0,-0.266481460145,0.9638400445090001,0.0,0.0,-0.012391837689200002,0.0,0.0,0.0
1332,0.0,0.0,-0.265892634084,0.964002648928,0.0,0.0,0.0317649923863,0.0,0.0,0.0
1333,0.0,0.0,-0.26580850797,0.964025848767,0.0,0.0,-0.012042771838799999,0.0,0.0,0.0
1334,0.0,0.0,-0.26698608906,0.963700383028,0.0,0.0,-0.041015237421900004,0.0,0.0,0.0
1335,0.0,0.0,-0.267238376078,0.963630453209,0.0,0.0,-0.0338593874887,0.0,0.0,0.0
1336,0.0,0.0,-0.266817887548,0.9637469662129999,0.0,0.0,0.0431096325243,0.0,0.0,0.0
1337,0.0,0.0,-0.266481460145,0.9638400445090001,0.0,0.0,0.0321140582367,0.0,0.0,0.0
1338,0.0,0.0,-0.267070186767,0.963677080427,0.0,0.0,-0.0596902604182,0.0,0.0,0.0
1339,0.0,0.0,-0.269676203707,0.962951060623,0.0,0.0,-0.06527531402459999,0.0,0.0,0.0
1340,0.0,0.0,-0.26976023601300003,0.962927523268,0.0,0.0,0.0232128790515,0.0,0.0,0.0
1341,0.0,0.0,-0.269844266264,0.96290397858,0.0,0.0,-0.044680428851100004,0.0,0.0,0.0
1342,0.0,0.0,-0.27085246880999997,0.962620870405,0.0,0.0,-0.0020943951023900003,0.0,0.0,0.0
1343,0.0,0.0,-0.270012320601,0.9628568672050001,0.0,0.0,0.0390953752447,0.0,0.0,0.0
1344,0.0,0.0,-0.270180366714,0.9628097265000001,0.0,0.0,-0.047996554429800005,0.0,0.0,0.0
1345,0.0,0.0,-0.271608425858,0.962407846499,0.0,0.0,-0.0305432619099,0.0,0.0,0.0
1346,0.0,0.0,-0.271356458768,0.9624789204369999,0.0,0.0,0.012217304764,0.0,0.0,0.0
1347,0.0,0.0,-0.271860374332,0.962336706599,0.0,0.0,-0.0298451302091,0.0,0.0,0.0
1348,0.0,0.0,-0.272784025857,0.962075296033,0.0,0.0,-0.0127409035396,0.0,0.0,0.0
1349,0.0,0.0,-0.272280247041,0.962217993529,0.0,0.0,0.0364773813667,0.0,0.0,0.0
1350,0.0,0.0,-0.271944353017,0.9623129786419999,0.0,0.0,-0.013962634016,0.0,0.0,0.0
1351,0.0,0.0,-0.272532145788,0.962146677753,0.0,0.0,-0.0198967534727,0.0,0.0,0.0
1352,0.0,0.0,-0.272364215364,0.9621942289309999,0.0,0.0,0.00994837673637,0.0,0.0,0.0
1353,0.0,0.0,-0.272280247041,0.962217993529,0.0,0.0,0.00645771823238,0.0,0.0,0.0
1354,0.0,0.0,-0.272532145788,0.962146677753,0.0,0.0,-0.0205948851735,0.0,0.0,0.0
1355,0.0,0.0,-0.27320378441599996,0.9619561799690001,0.0,0.0,-0.000349065850399,0.0,0.0,0.0
1356,0.0,0.0,-0.273119836863,0.961980017834,0.0,0.0,0.010646508437200001,0.0,0.0,0.0
1357,0.0,0.0,-0.27303588723,0.962003848373,0.0,0.0,-0.008028514559169999,0.0,0.0,0.0
1358,0.0,0.0,-0.27328772988899996,0.961932334778,0.0,0.0,-0.017453292519900004,0.0,0.0,0.0
1359,0.0,0.0,-0.273791358997,0.961789109805,0.0,0.0,-0.0144862327916,0.0,0.0,0.0
1360,0.0,0.0,-0.273875289887,0.961765213339,0.0,0.0,0.0012217304764,0.0,0.0,0.0
1361,0.0,0.0,-0.274043145411,0.961717398435,0.0,0.0,-0.020943951023900002,0.0,0.0,0.0
1362,0.0,0.0,-0.27429491304299997,0.9616456211509999,0.0,0.0,-0.0354301838155,0.0,0.0,0.0
1363,0.0,0.0,-0.275469579804,0.961309789091,0.0,0.0,-0.0240855436775,0.0,0.0,0.0
1364,0.0,0.0,-0.275134002609,0.961405887546,0.0,0.0,0.022340214425499997,0.0,0.0,0.0
1365,0.0,0.0,-0.27505010307100003,0.961429893856,0.0,0.0,0.00279252680319,0.0,0.0,0.0
1366,0.0,0.0,-0.275889004092,0.961189501306,0.0,0.0,-0.0371755130675,0.0,0.0,0.0
1367,0.0,0.0,-0.276140633457,0.961117240795,0.0,0.0,-0.0331612557879,0.0,0.0,0.0
1368,0.0,0.0,-0.275889004092,0.961189501306,0.0,0.0,0.0434586983747,0.0,0.0,0.0
1369,0.0,0.0,-0.275637355817,0.9612616959379999,0.0,0.0,-0.023561944901900004,0.0,0.0,0.0
1370,0.0,0.0,-0.276895407927,0.960900064038,0.0,0.0,-0.046425758103,0.0,0.0,0.0
1371,0.0,0.0,-0.276643835392,0.960972522156,0.0,0.0,0.048171087355,0.0,0.0,0.0
1372,0.0,0.0,-0.27639224389600003,0.96104491441,0.0,0.0,-0.0261799387799,0.0,0.0,0.0
1373,0.0,0.0,-0.278236807172,0.9605125085780001,0.0,0.0,-0.056897733614999994,0.0,0.0,0.0
1374,0.0,0.0,-0.277817678054,0.9606338208499999,0.0,0.0,0.0598647933434,0.0,0.0,0.0
1375,0.0,0.0,-0.27748233667399996,0.960730738987,0.0,0.0,-0.0438077642251,0.0,0.0,0.0
1376,0.0,0.0,-0.27966144946,0.9600986791399999,0.0,0.0,-0.0846484687217,0.0,0.0,0.0
1377,0.0,0.0,-0.280331656578,0.959903204662,0.0,0.0,0.044505895925900006,0.0,0.0,0.0
1378,0.0,0.0,-0.28041542286800003,0.959878737455,0.0,0.0,-0.16807520696699998,0.0,0.0,0.0
1379,0.0,0.0,-0.28501926247,0.958521789017,0.0,0.0,-0.403869188911,0.0,0.0,0.0
1380,0.0,0.0,-0.294457340605,0.955664624522,0.0,0.0,-0.283266937599,0.0,0.0,0.0
1381,0.0,0.0,-0.302120335658,0.953269795379,0.0,0.0,-0.27995081202,0.0,0.0,0.0
1382,0.0,0.0,-0.304864299028,0.952395799643,0.0,0.0,-0.319046187265,0.0,0.0,0.0
1383,0.0,0.0,-0.312832279878,0.9498083831309999,0.0,0.0,-0.27157323160999997,0.0,0.0,0.0
1384,0.0,0.0,-0.321356828837,0.9469581767749999,0.0,0.0,-0.281347075421,0.0,0.0,0.0
1385,0.0,0.0,-0.323669722533,0.9461701277869999,0.0,0.0,-0.260054058547,0.0,0.0,0.0
1386,0.0,0.0,-0.337998849818,0.941146522876,0.0,0.0,-0.686437994809,0.0,0.0,0.0
1387,0.0,0.0,-0.35347484377899996,0.9354440308299999,0.0,0.0,-0.530231026756,0.0,0.0,0.0
1388,0.0,0.0,-0.35787907887500003,0.933767939535,0.0,0.0,-0.501956692874,0.0,0.0,0.0
1389,0.0,0.0,-0.37136783554999997,0.9284858268809999,0.0,0.0,-0.453262006743,0.0,0.0,0.0
1390,0.0,0.0,-0.375658208847,0.926758280312,0.0,0.0,-0.506320016004,0.0,0.0,0.0
1391,0.0,0.0,-0.38848074663099996,0.921456840821,0.0,0.0,-0.47664941872,0.0,0.0,0.0
1392,0.0,0.0,-0.40314603148199996,0.915135660599,0.0,0.0,-0.45762532987300003,0.0,0.0,0.0
1393,0.0,0.0,-0.406975794776,0.913438942933,0.0,0.0,-0.456403599397,0.0,0.0,0.0
1394,0.0,0.0,-0.422143662183,0.906528945196,0.0,0.0,-0.518188254917,0.0,0.0,0.0
1395,0.0,0.0,-0.43483821978200005,0.900508591084,0.0,0.0,-0.48991392103500003,0.0,0.0,0.0
1396,0.0,0.0,-0.448461216762,0.893802291931,0.0,0.0,-0.480663675999,0.0,0.0,0.0
1397,0.0,0.0,-0.46066458072800004,0.887574303404,0.0,0.0,-0.478045682121,0.0,0.0,0.0
1398,0.0,0.0,-0.474856389871,0.8800632982909999,0.0,0.0,-0.497942435594,0.0,0.0,0.0
1399,0.0,0.0,-0.48679281980300004,0.873517458663,0.0,0.0,-0.5057964172280001,0.0,0.0,0.0
1400,0.0,0.0,-0.500680020479,0.865632437639,0.0,0.0,-0.49811696851899995,0.0,0.0,0.0
1401,0.0,0.0,-0.512792253721,0.858512728225,0.0,0.0,-0.49026298688500003,0.0,0.0,0.0
1402,0.0,0.0,-0.526584909701,0.8501225399169999,0.0,0.0,-0.493230046614,0.0,0.0,0.0
1403,0.0,0.0,-0.538108958339,0.842875286715,0.0,0.0,-0.5049237526020001,0.0,0.0,0.0
1404,0.0,0.0,-0.551645870628,0.834078433613,0.0,0.0,-0.500560429472,0.0,0.0,0.0
1405,0.0,0.0,-0.563526048938,0.8260982944959999,0.0,0.0,-0.506320016004,0.0,0.0,0.0
1406,0.0,0.0,-0.577430216549,0.816440043737,0.0,0.0,-0.524296907299,0.0,0.0,0.0
1407,0.0,0.0,-0.581271174002,0.813709912852,0.0,0.0,-0.5057964172280001,0.0,0.0,0.0
1408,0.0,0.0,-0.593067628953,0.805152648563,0.0,0.0,-0.5291838292050001,0.0,0.0,0.0
1409,0.0,0.0,-0.59874405405,0.800940420843,0.0,0.0,-0.504574686752,0.0,0.0,0.0
1410,0.0,0.0,-0.610559922132,0.791970063504,0.0,0.0,-0.5379104754649999,0.0,0.0,0.0
1411,0.0,0.0,-0.614422911896,0.788976859824,0.0,0.0,-0.524820506075,0.0,0.0,0.0
1412,0.0,0.0,-0.62449320897,0.781030237539,0.0,0.0,-0.577005850709,0.0,0.0,0.0
1413,0.0,0.0,-0.636212884485,0.771513555043,0.0,0.0,-0.539481271791,0.0,0.0,0.0
1414,0.0,0.0,-0.649647099888,0.7602359144419999,0.0,0.0,-0.526216769476,0.0,0.0,0.0
1415,0.0,0.0,-0.65342060399,0.756995055652,0.0,0.0,-0.541750199819,0.0,0.0,0.0
1416,0.0,0.0,-0.664643741284,0.747160422648,0.0,0.0,-0.514173997638,0.0,0.0,0.0
1417,0.0,0.0,-0.67700443255,0.735978938766,0.0,0.0,-0.485899663755,0.0,0.0,0.0
1418,0.0,0.0,-0.6802732569869999,0.732958590801,0.0,0.0,-0.47926741259800004,0.0,0.0,0.0
1419,0.0,0.0,-0.690819317661,0.723027434021,0.0,0.0,-0.535816080362,0.0,0.0,0.0
1420,0.0,0.0,-0.7004734336470001,0.713678477155,0.0,0.0,-0.271398698685,0.0,0.0,0.0
1421,0.0,0.0,-0.7020909143269999,0.712087317693,0.0,0.0,-0.24469516113,0.0,0.0,0.0
1422,0.0,0.0,-0.7089555570810001,0.7052531588619999,0.0,0.0,-0.30613075079999996,0.0,0.0,0.0
1423,0.0,0.0,-0.7162410469920001,0.697852966321,0.0,0.0,-0.40334559013599997,0.0,0.0,0.0
1424,0.0,0.0,-0.7232082653149999,0.690630005849,0.0,0.0,-0.306654349575,0.0,0.0,0.0
1425,0.0,0.0,-0.728968627421,0.6845471059289999,0.0,0.0,-0.192509816495,0.0,0.0,0.0
1426,0.0,0.0,-0.7292672480410001,0.6842289682070001,0.0,0.0,-0.0513126800086,0.0,0.0,0.0
1427,0.0,0.0,-0.730817835847,0.682572553512,0.0,0.0,-0.104894288045,0.0,0.0,0.0
1428,0.0,0.0,-0.73367056927,0.6795053316840001,0.0,0.0,-0.08307767239489999,0.0,0.0,0.0
1429,0.0,0.0,-0.733551962043,0.679633371005,0.0,0.0,0.0109955742876,0.0,0.0,0.0
1430,0.0,0.0,-0.7346778279989999,0.6784161621349999,0.0,0.0,-0.11344640138,0.0,0.0,0.0
1431,0.0,0.0,-0.7356243592039999,0.677389697402,0.0,0.0,-0.16877333866799998,0.0,0.0,0.0
1432,0.0,0.0,-0.738337641411,0.674431262084,0.0,0.0,-0.103847090494,0.0,0.0,0.0
1433,0.0,0.0,-0.739161063402,0.6735287093729999,0.0,0.0,-0.08604473212330001,0.0,0.0,0.0
1434,0.0,0.0,-0.74057007644,0.671979137981,0.0,0.0,-0.0783652834145,0.0,0.0,0.0
1435,0.0,0.0,-0.741800298272,0.670620844802,0.0,0.0,-0.021816615649900003,0.0,0.0,0.0
1436,0.0,0.0,-0.742209818805,0.6701675796909999,0.0,0.0,-0.04502949470150001,0.0,0.0,0.0
1437,0.0,0.0,-0.7447193630269999,0.667377756846,0.0,0.0,-0.155508836353,0.0,0.0,0.0
1438,0.0,0.0,-0.745650471926,0.66633728225,0.0,0.0,-0.156032435128,0.0,0.0,0.0
1439,0.0,0.0,-0.747682202125,0.664056717928,0.0,0.0,-0.064751715249,0.0,0.0,0.0
1440,0.0,0.0,-0.747913956092,0.663795687153,0.0,0.0,-0.0343829862643,0.0,0.0,0.0
