,orientation_X,orientation_Y,orientation_Z,orientation_W,angular_velocity_X,angular_velocity_Y,angular_velocity_Z,linear_acceleration_X,linear_acceleration_Y,linear_acceleration_Z
0,0.0,0.0,0.977856347869,0.209277239403,0.0,0.0,0.0,0.0,0.0,0.0
1,0.0,0.0,0.977856347869,0.209277239403,0.0,0.0,0.0,0.0,0.0,0.0
2,0.0,0.0,0.977856347869,0.209277239403,0.0,0.0,0.0,0.0,0.0,0.0
3,0.0,0.0,0.977856347869,0.209277239403,0.0,0.0,0.0,0.0,0.0,0.0
4,0.0,0.0,0.977856347869,0.209277239403,0.0,0.0,0.0,0.0,0.0,0.0
5,0.0,0.0,0.977856347869,0.209277239403,0.0,0.0,0.0,0.0,0.0,0.0
6,0.0,0.0,0.977856347869,0.209277239403,0.0,0.0,0.0,0.0,0.0,0.0
7,0.0,0.0,0.977856347869,0.209277239403,0.0,0.0,0.0,0.0,0.0,0.0
8,0.0,0.0,0.977856347869,0.209277239403,0.0,0.0,0.0,0.0,0.0,0.0
9,0.0,0.0,0.977856347869,0.209277239403,0.0,0.0,0.0,0.0,0.0,0.0
10,0.0,0.0,0.977856347869,0.209277239403,0.0,0.0,0.0,0.0,0.0,0.0
11,0.0,0.0,0.977856347869,0.209277239403,0.0,0.0,0.0,0.0,0.0,0.0
12,0.0,0.0,0.977856347869,0.209277239403,0.0,0.0,0.00244346095279,0.0,0.0,0.0
13,0.0,0.0,0.977856347869,0.209277239403,0.0,0.0,0.0005235987755980001,0.0,0.0,0.0
14,0.0,0.0,0.97787460703,0.20919190454199998,0.0,0.0,0.000872664625997,0.0,0.0,0.0
15,0.0,0.0,0.97787460703,0.20919190454199998,0.0,0.0,0.00174532925199,0.0,0.0,0.0
16,0.0,0.0,0.977892858744,0.20910656808800002,0.0,0.0,0.00977384381117,0.0,0.0,0.0
17,0.0,0.0,0.977892858744,0.20910656808800002,0.0,0.0,0.004014257279590001,0.0,0.0,0.0
18,0.0,0.0,0.97787460703,0.20919190454199998,0.0,0.0,-0.011344640138,0.0,0.0,0.0
19,0.0,0.0,0.97787460703,0.20919190454199998,0.0,0.0,0.00296705972839,0.0,0.0,0.0
20,0.0,0.0,0.97787460703,0.20919190454199998,0.0,0.0,-0.00680678408278,0.0,0.0,0.0
21,0.0,0.0,0.977801525706,0.209533234422,0.0,0.0,-0.0101229096616,0.0,0.0,0.0
22,0.0,0.0,0.9777832367589999,0.209618562904,0.0,0.0,-0.0129154364648,0.0,0.0,0.0
23,0.0,0.0,0.977801525706,0.209533234422,0.0,0.0,0.0157079632679,0.0,0.0,0.0
24,0.0,0.0,0.977801525706,0.209533234422,0.0,0.0,-0.013788101090799998,0.0,0.0,0.0
25,0.0,0.0,0.977563188623,0.210642379992,0.0,0.0,-0.0383972435439,0.0,0.0,0.0
26,0.0,0.0,0.977618301168,0.210386447332,0.0,0.0,0.036826447217099996,0.0,0.0,0.0
27,0.0,0.0,0.977636657127,0.21030113324000002,0.0,0.0,-0.011868238913600001,0.0,0.0,0.0
28,0.0,0.0,0.977599937765,0.210471759821,0.0,0.0,-0.009250245035569999,0.0,0.0,0.0
29,0.0,0.0,0.9774896010070001,0.210983601077,0.0,0.0,-0.00279252680319,0.0,0.0,0.0
30,0.0,0.0,0.9775264097040001,0.21081299374499998,0.0,0.0,0.0204203522483,0.0,0.0,0.0
31,0.0,0.0,0.977471185492,0.211068902334,0.0,0.0,-0.0164060949687,0.0,0.0,0.0
32,0.0,0.0,0.977434332132,0.21123950002300002,0.0,0.0,-0.00174532925199,0.0,0.0,0.0
33,0.0,0.0,0.9773789962639999,0.211495384491,0.0,0.0,-0.0305432619099,0.0,0.0,0.0
34,0.0,0.0,0.97734206847,0.21166596608399998,0.0,0.0,0.0240855436775,0.0,0.0,0.0
35,0.0,0.0,0.977323593409,0.211751254463,0.0,0.0,0.0193731546971,0.0,0.0,0.0
36,0.0,0.0,0.977360536089,0.211580676093,0.0,0.0,0.0127409035396,0.0,0.0,0.0
37,0.0,0.0,0.977434332132,0.21123950002300002,0.0,0.0,0.0274016692563,0.0,0.0,0.0
38,0.0,0.0,0.9772681235680001,0.21200710992199998,0.0,0.0,-0.0237364778271,0.0,0.0,0.0
39,0.0,0.0,0.9772496187369999,0.21209239184700002,0.0,0.0,-0.00645771823238,0.0,0.0,0.0
40,0.0,0.0,0.977119876542,0.212689320059,0.0,0.0,-0.0132645023152,0.0,0.0,0.0
41,0.0,0.0,0.977175524989,0.212433503388,0.0,0.0,0.0267035375555,0.0,0.0,0.0
42,0.0,0.0,0.9771384334659999,0.212604049454,0.0,0.0,-0.00645771823238,0.0,0.0,0.0
43,0.0,0.0,0.9771384334659999,0.212604049454,0.0,0.0,0.00418879020479,0.0,0.0,0.0
44,0.0,0.0,0.977064161123,0.21294512215300002,0.0,0.0,0.0109955742876,0.0,0.0,0.0
45,0.0,0.0,0.977064161123,0.21294512215300002,0.0,0.0,-0.004014257279590001,0.0,0.0,0.0
46,0.0,0.0,0.977156982948,0.21251877723,0.0,0.0,-0.00366519142919,0.0,0.0,0.0
47,0.0,0.0,0.9771940595890001,0.212348227928,0.0,0.0,-0.00296705972839,0.0,0.0,0.0
48,0.0,0.0,0.9771940595890001,0.212348227928,0.0,0.0,-0.004363323129989999,0.0,0.0,0.0
49,0.0,0.0,0.977119876542,0.212689320059,0.0,0.0,0.0183259571459,0.0,0.0,0.0
50,0.0,0.0,0.977119876542,0.212689320059,0.0,0.0,-0.00855211333477,0.0,0.0,0.0
51,0.0,0.0,0.977064161123,0.21294512215300002,0.0,0.0,-0.0125663706144,0.0,0.0,0.0
52,0.0,0.0,0.977008378738,0.213200909652,0.0,0.0,-0.0240855436775,0.0,0.0,0.0
53,0.0,0.0,0.9769152592899999,0.213627189669,0.0,0.0,-0.00977384381117,0.0,0.0,0.0
54,0.0,0.0,0.9768779594329999,0.213797690292,0.0,0.0,-0.0204203522483,0.0,0.0,0.0
55,0.0,0.0,0.976840629818,0.213968184403,0.0,0.0,-0.013962634016,0.0,0.0,0.0
56,0.0,0.0,0.976803270447,0.21413867199499997,0.0,0.0,-0.005759586531579999,0.0,0.0,0.0
57,0.0,0.0,0.976803270447,0.21413867199499997,0.0,0.0,0.0005235987755980001,0.0,0.0,0.0
58,0.0,0.0,0.976784579603,0.21422391334600002,0.0,0.0,0.000174532925199,0.0,0.0,0.0
59,0.0,0.0,0.9766722783339999,0.214735327167,0.0,0.0,-0.0127409035396,0.0,0.0,0.0
60,0.0,0.0,0.9766722783339999,0.214735327167,0.0,0.0,-0.00453785605519,0.0,0.0,0.0
61,0.0,0.0,0.9767097418430001,0.21456486242800002,0.0,0.0,-0.00261799387799,0.0,0.0,0.0
62,0.0,0.0,0.976634785074,0.214905785365,0.0,0.0,-0.0239110107523,0.0,0.0,0.0
63,0.0,0.0,0.9765972620640001,0.215076237017,0.0,0.0,-0.0109955742876,0.0,0.0,0.0
64,0.0,0.0,0.9765972620640001,0.215076237017,0.0,0.0,0.017278759594700002,0.0,0.0,0.0
65,0.0,0.0,0.97654092177,0.215331902209,0.0,0.0,-0.008028514559169999,0.0,0.0,0.0
66,0.0,0.0,0.97650332439,0.215502337472,0.0,0.0,-0.0225147473507,0.0,0.0,0.0
67,0.0,0.0,0.976522126798,0.21541712066100002,0.0,0.0,0.000872664625997,0.0,0.0,0.0
68,0.0,0.0,0.976522126798,0.21541712066100002,0.0,0.0,0.00296705972839,0.0,0.0,0.0
69,0.0,0.0,0.976446872546,0.215757978057,0.0,0.0,-0.023387411976700002,0.0,0.0,0.0
70,0.0,0.0,0.9764280403929999,0.215843188299,0.0,0.0,-0.00610865238198,0.0,0.0,0.0
71,0.0,0.0,0.976333768089,0.216269214844,0.0,0.0,-0.0207694180987,0.0,0.0,0.0
72,0.0,0.0,0.976314891322,0.21635441521499998,0.0,0.0,-0.00226892802759,0.0,0.0,0.0
73,0.0,0.0,0.976352637421,0.21618401282699998,0.0,0.0,0.00628318530718,0.0,0.0,0.0
74,0.0,0.0,0.9762014745890001,0.216865582816,0.0,0.0,-0.0158824961931,0.0,0.0,0.0
75,0.0,0.0,0.97618254578,0.21695077164,0.0,0.0,0.00628318530718,0.0,0.0,0.0
76,0.0,0.0,0.9762393099050001,0.216695200215,0.0,0.0,0.00994837673637,0.0,0.0,0.0
77,0.0,0.0,0.976144665859,0.21712114433000002,0.0,0.0,-0.0197222205475,0.0,0.0,0.0
78,0.0,0.0,0.9761067562029999,0.217291510406,0.0,0.0,-0.0115191730632,0.0,0.0,0.0
79,0.0,0.0,0.976068816814,0.21746186986299998,0.0,0.0,-0.0111701072128,0.0,0.0,0.0
80,0.0,0.0,0.9760877902249999,0.21737669096200002,0.0,0.0,0.0207694180987,0.0,0.0,0.0
81,0.0,0.0,0.9760877902249999,0.21737669096200002,0.0,0.0,-0.0230383461263,0.0,0.0,0.0
82,0.0,0.0,0.975992848837,0.217802568899,0.0,0.0,-0.0101229096616,0.0,0.0,0.0
83,0.0,0.0,0.9758977216339999,0.21822840536899998,0.0,0.0,0.004014257279590001,0.0,0.0,0.0
84,0.0,0.0,0.975954820253,0.217972908468,0.0,0.0,0.00872664625997,0.0,0.0,0.0
85,0.0,0.0,0.975859618728,0.21839872832899998,0.0,0.0,-0.012217304764,0.0,0.0,0.0
86,0.0,0.0,0.975878673897,0.21831356768000004,0.0,0.0,0.0116937059884,0.0,0.0,0.0
87,0.0,0.0,0.975840556128,0.218483887314,0.0,0.0,-0.0115191730632,0.0,0.0,0.0
88,0.0,0.0,0.9757642314139999,0.21882450661,0.0,0.0,-0.010821041362399999,0.0,0.0,0.0
89,0.0,0.0,0.975687787806,0.219165099243,0.0,0.0,0.000698131700798,0.0,0.0,0.0
90,0.0,0.0,0.975726024471,0.21899480626200002,0.0,0.0,-0.014137166941200001,0.0,0.0,0.0
91,0.0,0.0,0.975687787806,0.219165099243,0.0,0.0,-0.015533430342700001,0.0,0.0,0.0
92,0.0,0.0,0.9755920661159999,0.21959080247499999,0.0,0.0,-0.00314159265359,0.0,0.0,0.0
93,0.0,0.0,0.975553725432,0.21976107206700002,0.0,0.0,0.0102974425868,0.0,0.0,0.0
94,0.0,0.0,0.975553725432,0.21976107206700002,0.0,0.0,-0.00680678408278,0.0,0.0,0.0
95,0.0,0.0,0.975496158687,0.220016463901,0.0,0.0,-0.0171042266695,0.0,0.0,0.0
96,0.0,0.0,0.975438525082,0.220271840655,0.0,0.0,0.00610865238198,0.0,0.0,0.0
97,0.0,0.0,0.975457743712,0.220186716747,0.0,0.0,0.00855211333477,0.0,0.0,0.0
98,0.0,0.0,0.975400065537,0.220442083439,0.0,0.0,-0.0129154364648,0.0,0.0,0.0
99,0.0,0.0,0.975400065537,0.220442083439,0.0,0.0,-0.0038397243543899996,0.0,0.0,0.0
100,0.0,0.0,0.975419299024,0.220356962886,0.0,0.0,0.00314159265359,0.0,0.0,0.0
101,0.0,0.0,0.975400065537,0.220442083439,0.0,0.0,-0.0181514242207,0.0,0.0,0.0
102,0.0,0.0,0.97532305731,0.22078254885499998,0.0,0.0,0.0050614548307799994,0.0,0.0,0.0
103,0.0,0.0,0.9753423205089999,0.220697435022,0.0,0.0,-0.000349065850399,0.0,0.0,0.0
104,0.0,0.0,0.9751686843459999,0.221463398941,0.0,0.0,-0.0232128790515,0.0,0.0,0.0
105,0.0,0.0,0.975207322148,0.22129319652600002,0.0,0.0,0.0207694180987,0.0,0.0,0.0
106,0.0,0.0,0.975226629909,0.22120809279,0.0,0.0,-0.027227136331099997,0.0,0.0,0.0
107,0.0,0.0,0.975052592713,0.221973965689,0.0,0.0,-0.0198967534727,0.0,0.0,0.0
108,0.0,0.0,0.975110671946,0.22171868991399998,0.0,0.0,0.026354471705099997,0.0,0.0,0.0
109,0.0,0.0,0.975149354306,0.221548497619,0.0,0.0,0.012042771838799999,0.0,0.0,0.0
110,0.0,0.0,0.9750332181170001,0.22205905423500003,0.0,0.0,-0.03473205211469999,0.0,0.0,0.0
111,0.0,0.0,0.9749362337630001,0.222484471582,0.0,0.0,-0.0216420827247,0.0,0.0,0.0
112,0.0,0.0,0.9749362337630001,0.222484471582,0.0,0.0,0.0291469985083,0.0,0.0,0.0
113,0.0,0.0,0.9749750497799998,0.22231430972199998,0.0,0.0,-0.0205948851735,0.0,0.0,0.0
114,0.0,0.0,0.9748390637950001,0.22290984657200003,0.0,0.0,-0.0169296937443,0.0,0.0,0.0
115,0.0,0.0,0.97480014384,0.22307998468899998,0.0,0.0,-0.012217304764,0.0,0.0,0.0
116,0.0,0.0,0.974780672727,0.22316505120000002,0.0,0.0,-0.00418879020479,0.0,0.0,0.0
117,0.0,0.0,0.974741708232,0.223335179122,0.0,0.0,-0.0038397243543899996,0.0,0.0,0.0
118,0.0,0.0,0.974761194191,0.223250116011,0.0,0.0,0.006632251157579999,0.0,0.0,0.0
119,0.0,0.0,0.974761194191,0.223250116011,0.0,0.0,-0.009250245035569999,0.0,0.0,0.0
120,0.0,0.0,0.974722214849,0.223420240532,0.0,0.0,-0.017453292519900004,0.0,0.0,0.0
121,0.0,0.0,0.9746636901639999,0.22367541455200002,0.0,0.0,-0.004363323129989999,0.0,0.0,0.0
122,0.0,0.0,0.9745660005750001,0.224100670509,0.0,0.0,-0.015533430342700001,0.0,0.0,0.0
123,0.0,0.0,0.9745464403919999,0.22418571658300002,0.0,0.0,-0.00244346095279,0.0,0.0,0.0
124,0.0,0.0,0.974585553337,0.224015622728,0.0,0.0,0.0038397243543899996,0.0,0.0,0.0
125,0.0,0.0,0.974585553337,0.224015622728,0.0,0.0,0.00296705972839,0.0,0.0,0.0
126,0.0,0.0,0.974605098677,0.223930573241,0.0,0.0,-0.007679448708779999,0.0,0.0,0.0
127,0.0,0.0,0.9745072977600001,0.224355803608,0.0,0.0,-0.010821041362399999,0.0,0.0,0.0
128,0.0,0.0,0.9745464403919999,0.22418571658300002,0.0,0.0,0.008028514559169999,0.0,0.0,0.0
129,0.0,0.0,0.9744877153120001,0.224440844558,0.0,0.0,-0.011868238913600001,0.0,0.0,0.0
130,0.0,0.0,0.97440931131,0.224780991261,0.0,0.0,-0.00244346095279,0.0,0.0,0.0
131,0.0,0.0,0.974448528153,0.224610921331,0.0,0.0,-0.010471975512,0.0,0.0,0.0
132,0.0,0.0,0.974291482694,0.225291159947,0.0,0.0,-0.012042771838799999,0.0,0.0,0.0
133,0.0,0.0,0.9742718186210001,0.225376182061,0.0,0.0,0.00226892802759,0.0,0.0,0.0
134,0.0,0.0,0.974311139346,0.225206136118,0.0,0.0,-0.007679448708779999,0.0,0.0,0.0
135,0.0,0.0,0.9742324682179999,0.225546221138,0.0,0.0,-0.00715584993318,0.0,0.0,0.0
136,0.0,0.0,0.9742127818880001,0.2256312381,0.0,0.0,-0.00977384381117,0.0,0.0,0.0
137,0.0,0.0,0.974114238953,0.226056297124,0.0,0.0,-0.00174532925199,0.0,0.0,0.0
138,0.0,0.0,0.9740945081100001,0.22614130376699998,0.0,0.0,-0.009250245035569999,0.0,0.0,0.0
139,0.0,0.0,0.974074769849,0.226226308688,0.0,0.0,-0.015533430342700001,0.0,0.0,0.0
140,0.0,0.0,0.974035271074,0.226396313361,0.0,0.0,0.010471975512,0.0,0.0,0.0
141,0.0,0.0,0.974035271074,0.226396313361,0.0,0.0,0.006632251157579999,0.0,0.0,0.0
142,0.0,0.0,0.974055024171,0.226311311886,0.0,0.0,0.0033161255787899995,0.0,0.0,0.0
143,0.0,0.0,0.9740155105600001,0.22648131311099998,0.0,0.0,-0.010471975512,0.0,0.0,0.0
144,0.0,0.0,0.9740155105600001,0.22648131311099998,0.0,0.0,0.00174532925199,0.0,0.0,0.0
145,0.0,0.0,0.9739363943289999,0.226821294859,0.0,0.0,-0.008028514559169999,0.0,0.0,0.0
146,0.0,0.0,0.9739165967290001,0.226906285979,0.0,0.0,-0.009250245035569999,0.0,0.0,0.0
147,0.0,0.0,0.9738967917110001,0.22699127537099997,0.0,0.0,-0.000698131700798,0.0,0.0,0.0
148,0.0,0.0,0.973876979277,0.227076263034,0.0,0.0,-0.00628318530718,0.0,0.0,0.0
149,0.0,0.0,0.9738967917110001,0.22699127537099997,0.0,0.0,-0.0010471975512,0.0,0.0,0.0
150,0.0,0.0,0.97383733216,0.227246233173,0.0,0.0,-0.014311699866400001,0.0,0.0,0.0
151,0.0,0.0,0.9738174974770001,0.227331215647,0.0,0.0,-0.00820304748437,0.0,0.0,0.0
152,0.0,0.0,0.973876979277,0.227076263034,0.0,0.0,0.0204203522483,0.0,0.0,0.0
153,0.0,0.0,0.9738174974770001,0.227331215647,0.0,0.0,-0.0214675497995,0.0,0.0,0.0
154,0.0,0.0,0.9737579489329999,0.227586152678,0.0,0.0,-0.022863813201099998,0.0,0.0,0.0
155,0.0,0.0,0.973718212825,0.227756102034,0.0,0.0,0.009250245035569999,0.0,0.0,0.0
156,0.0,0.0,0.9737579489329999,0.227586152678,0.0,0.0,0.0167551608191,0.0,0.0,0.0
157,0.0,0.0,0.9737579489329999,0.227586152678,0.0,0.0,-0.0249582083035,0.0,0.0,0.0
158,0.0,0.0,0.9735789028730001,0.22835087011100003,0.0,0.0,-0.015358897417600001,0.0,0.0,0.0
159,0.0,0.0,0.9736585530480001,0.22801101305799998,0.0,0.0,0.0205948851735,0.0,0.0,0.0
160,0.0,0.0,0.9736784470550001,0.227926044452,0.0,0.0,-0.0160570291183,0.0,0.0,0.0
161,0.0,0.0,0.9735390333,0.228520788206,0.0,0.0,-0.00855211333477,0.0,0.0,0.0
162,0.0,0.0,0.973479173335,0.22877565229400001,0.0,0.0,-0.015358897417600001,0.0,0.0,0.0
163,0.0,0.0,0.9734991340700001,0.228690699339,0.0,0.0,-0.000174532925199,0.0,0.0,0.0
164,0.0,0.0,0.973399256261,0.22911544668499997,0.0,0.0,-0.013962634016,0.0,0.0,0.0
165,0.0,0.0,0.973319220582,0.22945521315900003,0.0,0.0,-0.00157079632679,0.0,0.0,0.0
166,0.0,0.0,0.973359253247,0.229285333414,0.0,0.0,0.00837758040957,0.0,0.0,0.0
167,0.0,0.0,0.973339240621,0.22937027415999997,0.0,0.0,-0.0216420827247,0.0,0.0,0.0
168,0.0,0.0,0.9731788727770001,0.230049737188,0.0,0.0,-0.0198967534727,0.0,0.0,0.0
169,0.0,0.0,0.973198944698,0.229964810435,0.0,0.0,0.015533430342700001,0.0,0.0,0.0
170,0.0,0.0,0.973259115993,0.22971001966899998,0.0,0.0,0.000349065850399,0.0,0.0,0.0
171,0.0,0.0,0.973219009208,0.22987988193000003,0.0,0.0,-0.00837758040957,0.0,0.0,0.0
172,0.0,0.0,0.973198944698,0.229964810435,0.0,0.0,-0.00418879020479,0.0,0.0,0.0
173,0.0,0.0,0.9731788727770001,0.230049737188,0.0,0.0,0.00872664625997,0.0,0.0,0.0
174,0.0,0.0,0.973198944698,0.229964810435,0.0,0.0,0.0136135681656,0.0,0.0,0.0
175,0.0,0.0,0.973259115993,0.22971001966899998,0.0,0.0,-0.00855211333477,0.0,0.0,0.0
176,0.0,0.0,0.973219009208,0.22987988193000003,0.0,0.0,-0.0254818070791,0.0,0.0,0.0
177,0.0,0.0,0.973098510982,0.230389426677,0.0,0.0,0.0343829862643,0.0,0.0,0.0
178,0.0,0.0,0.9735789028730001,0.22835087011100003,0.0,0.0,0.04136430327230001,0.0,0.0,0.0
179,0.0,0.0,0.9736784470550001,0.227926044452,0.0,0.0,0.041189770347099995,0.0,0.0,0.0
180,0.0,0.0,0.973359253247,0.229285333414,0.0,0.0,-0.061261056745,0.0,0.0,0.0
181,0.0,0.0,0.9732390663060001,0.229794951674,0.0,0.0,-0.0523598775598,0.0,0.0,0.0
182,0.0,0.0,0.973118612547,0.23030450693500001,0.0,0.0,0.046251225177800004,0.0,0.0,0.0
183,0.0,0.0,0.973279158268,0.22962508591400002,0.0,0.0,0.00279252680319,0.0,0.0,0.0
184,0.0,0.0,0.9730582856209999,0.230559260896,0.0,0.0,-0.0335103216383,0.0,0.0,0.0
185,0.0,0.0,0.9730180306180001,0.23072908809300002,0.0,0.0,-0.00645771823238,0.0,0.0,0.0
186,0.0,0.0,0.973038161824,0.23064417537300003,0.0,0.0,0.0005235987755980001,0.0,0.0,0.0
187,0.0,0.0,0.9730582856209999,0.230559260896,0.0,0.0,-0.0101229096616,0.0,0.0,0.0
188,0.0,0.0,0.972977745976,0.23089890826099999,0.0,0.0,-0.0019198621771900001,0.0,0.0,0.0
189,0.0,0.0,0.972977745976,0.23089890826099999,0.0,0.0,-0.0144862327916,0.0,0.0,0.0
190,0.0,0.0,0.97291726344,0.231153625323,0.0,0.0,-0.00226892802759,0.0,0.0,0.0
191,0.0,0.0,0.972876904704,0.231323427898,0.0,0.0,-0.004363323129989999,0.0,0.0,0.0
192,0.0,0.0,0.9728567142219999,0.231408326543,0.0,0.0,0.0116937059884,0.0,0.0,0.0
193,0.0,0.0,0.972836516331,0.23149322342599998,0.0,0.0,-0.004363323129989999,0.0,0.0,0.0
194,0.0,0.0,0.9727354157539999,0.231917681383,0.0,0.0,-0.034906585039900004,0.0,0.0,0.0
195,0.0,0.0,0.9727151734139999,0.23200256767900002,0.0,0.0,0.0111701072128,0.0,0.0,0.0
196,0.0,0.0,0.9727151734139999,0.23200256767900002,0.0,0.0,0.004014257279590001,0.0,0.0,0.0
197,0.0,0.0,0.97265440195,0.232257215962,0.0,0.0,-0.0019198621771900001,0.0,0.0,0.0
198,0.0,0.0,0.97265440195,0.232257215962,0.0,0.0,-0.00226892802759,0.0,0.0,0.0
199,0.0,0.0,0.97265440195,0.232257215962,0.0,0.0,-0.00261799387799,0.0,0.0,0.0
200,0.0,0.0,0.972552968036,0.232681594384,0.0,0.0,-0.00715584993318,0.0,0.0,0.0
201,0.0,0.0,0.972532659033,0.23276646475499999,0.0,0.0,-0.006981317007979999,0.0,0.0,0.0
202,0.0,0.0,0.9725732696320001,0.232596722241,0.0,0.0,0.00418879020479,0.0,0.0,0.0
203,0.0,0.0,0.9725732696320001,0.232596722241,0.0,0.0,0.0010471975512,0.0,0.0,0.0
204,0.0,0.0,0.972471687587,0.233021065231,0.0,0.0,-0.0197222205475,0.0,0.0,0.0
205,0.0,0.0,0.97245134896,0.233105928507,0.0,0.0,-0.00418879020479,0.0,0.0,0.0
206,0.0,0.0,0.972492018808,0.23293620017900002,0.0,0.0,0.013962634016,0.0,0.0,0.0
207,0.0,0.0,0.972471687587,0.233021065231,0.0,0.0,-0.029670597283900004,0.0,0.0,0.0
208,0.0,0.0,0.9723902886460001,0.233360507684,0.0,0.0,-0.030717794835099996,0.0,0.0,0.0
209,0.0,0.0,0.9723291616859999,0.23361507086599997,0.0,0.0,0.00628318530718,0.0,0.0,0.0
210,0.0,0.0,0.9723291616859999,0.23361507086599997,0.0,0.0,-0.010646508437200001,0.0,0.0,0.0
211,0.0,0.0,0.972308771222,0.233699921703,0.0,0.0,-0.012042771838799999,0.0,0.0,0.0
212,0.0,0.0,0.9722679680830001,0.233869618037,0.0,0.0,-0.0164060949687,0.0,0.0,0.0
213,0.0,0.0,0.9722067078409999,0.234124149178,0.0,0.0,-0.00244346095279,0.0,0.0,0.0
214,0.0,0.0,0.9721862729530001,0.23420898932700002,0.0,0.0,0.0134390352404,0.0,0.0,0.0
215,0.0,0.0,0.972145380966,0.234378664273,0.0,0.0,-0.009075712110370001,0.0,0.0,0.0
216,0.0,0.0,0.972043021443,0.23480282039099998,0.0,0.0,-0.0230383461263,0.0,0.0,0.0
217,0.0,0.0,0.9720225273309999,0.234887646252,0.0,0.0,0.00488692190558,0.0,0.0,0.0
218,0.0,0.0,0.9720225273309999,0.234887646252,0.0,0.0,-0.00820304748437,0.0,0.0,0.0
219,0.0,0.0,0.9720225273309999,0.234887646252,0.0,0.0,-0.00820304748437,0.0,0.0,0.0
220,0.0,0.0,0.972043021443,0.23480282039099998,0.0,0.0,-0.00558505360638,0.0,0.0,0.0
221,0.0,0.0,0.9719610005789999,0.235142113103,0.0,0.0,-0.0116937059884,0.0,0.0,0.0
222,0.0,0.0,0.971940476857,0.235226931805,0.0,0.0,0.014835298642,0.0,0.0,0.0
223,0.0,0.0,0.9719815168979999,0.235057292609,0.0,0.0,0.00523598775598,0.0,0.0,0.0
224,0.0,0.0,0.971940476857,0.235226931805,0.0,0.0,-0.0176278254451,0.0,0.0,0.0
225,0.0,0.0,0.9718583079559999,0.235566188697,0.0,0.0,0.013089969390000001,0.0,0.0,0.0
226,0.0,0.0,0.971899407209,0.235396563836,0.0,0.0,0.0129154364648,0.0,0.0,0.0
227,0.0,0.0,0.9719199457340001,0.235311748717,0.0,0.0,-0.012042771838799999,0.0,0.0,0.0
228,0.0,0.0,0.9718788612829999,0.235481377163,0.0,0.0,-0.0219911485751,0.0,0.0,0.0
229,0.0,0.0,0.971755430305,0.235990219443,0.0,0.0,-0.013962634016,0.0,0.0,0.0
230,0.0,0.0,0.9717348325730001,0.236075020203,0.0,0.0,-0.008901179185170001,0.0,0.0,0.0
231,0.0,0.0,0.9717760206370001,0.235905416885,0.0,0.0,-0.0034906585039899997,0.0,0.0,0.0
232,0.0,0.0,0.9717348325730001,0.236075020203,0.0,0.0,-0.017278759594700002,0.0,0.0,0.0
233,0.0,0.0,0.9716729949770001,0.23632941169399999,0.0,0.0,-0.00855211333477,0.0,0.0,0.0
234,0.0,0.0,0.971611090784,0.236583786987,0.0,0.0,0.00226892802759,0.0,0.0,0.0
235,0.0,0.0,0.971631732915,0.23649899702399999,0.0,0.0,0.00558505360638,0.0,0.0,0.0
236,0.0,0.0,0.9715904412540001,0.236668575149,0.0,0.0,-0.0116937059884,0.0,0.0,0.0
237,0.0,0.0,0.971549119998,0.236838146066,0.0,0.0,0.00680678408278,0.0,0.0,0.0
238,0.0,0.0,0.971487082622,0.23709248891100002,0.0,0.0,-0.00314159265359,0.0,0.0,0.0
239,0.0,0.0,0.9714663887,0.23717726625,0.0,0.0,-0.0134390352404,0.0,0.0,0.0
240,0.0,0.0,0.971342069813,0.237685892326,0.0,0.0,-0.009599310885969999,0.0,0.0,0.0
241,0.0,0.0,0.9712590426090001,0.23802494018399997,0.0,0.0,-0.012042771838799999,0.0,0.0,0.0
242,0.0,0.0,0.971714227441,0.23615981916499998,0.0,0.0,0.04502949470150001,0.0,0.0,0.0
243,0.0,0.0,0.9716523676459999,0.23641420525899998,0.0,0.0,-0.026005405854700004,0.0,0.0,0.0
244,0.0,0.0,0.9714456873799999,0.237262041782,0.0,0.0,-0.013089969390000001,0.0,0.0,0.0
245,0.0,0.0,0.971507769146,0.237007709767,0.0,0.0,0.013962634016,0.0,0.0,0.0
246,0.0,0.0,0.971487082622,0.23709248891100002,0.0,0.0,-0.0249582083035,0.0,0.0,0.0
247,0.0,0.0,0.9713628081219999,0.237601125835,0.0,0.0,-0.00471238898038,0.0,0.0,0.0
248,0.0,0.0,0.971487082622,0.23709248891100002,0.0,0.0,-0.00453785605519,0.0,0.0,0.0
249,0.0,0.0,0.971342069813,0.237685892326,0.0,0.0,-0.0150098315672,0.0,0.0,0.0
250,0.0,0.0,0.971300571005,0.237855419878,0.0,0.0,0.008901179185170001,0.0,0.0,0.0
251,0.0,0.0,0.971300571005,0.237855419878,0.0,0.0,-0.00977384381117,0.0,0.0,0.0
252,0.0,0.0,0.971196694542,0.238279207047,0.0,0.0,-0.0300196631343,0.0,0.0,0.0
253,0.0,0.0,0.971092633177,0.238702948851,0.0,0.0,-0.000174532925199,0.0,0.0,0.0
254,0.0,0.0,0.971092633177,0.238702948851,0.0,0.0,0.00279252680319,0.0,0.0,0.0
255,0.0,0.0,0.9710509568619999,0.23887243285300003,0.0,0.0,-0.00628318530718,0.0,0.0,0.0
256,0.0,0.0,0.9710509568619999,0.23887243285300003,0.0,0.0,0.0033161255787899995,0.0,0.0,0.0
257,0.0,0.0,0.971009250968,0.239041909578,0.0,0.0,0.005410520681180001,0.0,0.0,0.0
258,0.0,0.0,0.970988386929,0.23912664521,0.0,0.0,-0.013962634016,0.0,0.0,0.0
259,0.0,0.0,0.970821208427,0.23980446465500002,0.0,0.0,-0.0109955742876,0.0,0.0,0.0
260,0.0,0.0,0.970904856829,0.239465569521,0.0,0.0,0.0125663706144,0.0,0.0,0.0
261,0.0,0.0,0.970925750445,0.23938084117699998,0.0,0.0,0.0101229096616,0.0,0.0,0.0
262,0.0,0.0,0.970821208427,0.23980446465500002,0.0,0.0,-0.009599310885969999,0.0,0.0,0.0
263,0.0,0.0,0.970821208427,0.23980446465500002,0.0,0.0,-0.000698131700798,0.0,0.0,0.0
264,0.0,0.0,0.970779339866,0.239973901267,0.0,0.0,-0.000698131700798,0.0,0.0,0.0
265,0.0,0.0,0.9708630474150001,0.23963502073800003,0.0,0.0,-0.00418879020479,0.0,0.0,0.0
266,0.0,0.0,0.970800277843,0.23988918387400002,0.0,0.0,0.00471238898038,0.0,0.0,0.0
267,0.0,0.0,0.9708421316179999,0.239719743609,0.0,0.0,0.00453785605519,0.0,0.0,0.0
268,0.0,0.0,0.970800277843,0.23988918387400002,0.0,0.0,-0.008028514559169999,0.0,0.0,0.0
269,0.0,0.0,0.970758394496,0.24005861683200003,0.0,0.0,-0.0012217304764,0.0,0.0,0.0
270,0.0,0.0,0.970674539091,0.240397460805,0.0,0.0,-0.0956440430093,0.0,0.0,0.0
271,0.0,0.0,0.9699782200579999,0.24319180210900002,0.0,0.0,-0.0469493568786,0.0,0.0,0.0
272,0.0,0.0,0.970232358021,0.24217591013300002,0.0,0.0,0.0375245789179,0.0,0.0,0.0
273,0.0,0.0,0.970380113833,0.241583183765,0.0,0.0,-0.00872664625997,0.0,0.0,0.0
274,0.0,0.0,0.9701054220190001,0.242683889388,0.0,0.0,-0.045553093477099994,0.0,0.0,0.0
275,0.0,0.0,0.970063050915,0.242853201028,0.0,0.0,0.0333357887131,0.0,0.0,0.0
276,0.0,0.0,0.9701054220190001,0.242683889388,0.0,0.0,-0.0244346095279,0.0,0.0,0.0
277,0.0,0.0,0.9700206502609999,0.24302250527,0.0,0.0,-0.030717794835099996,0.0,0.0,0.0
278,0.0,0.0,0.969893271012,0.243530373559,0.0,0.0,-0.00523598775598,0.0,0.0,0.0
279,0.0,0.0,0.969893271012,0.243530373559,0.0,0.0,0.0012217304764,0.0,0.0,0.0
280,0.0,0.0,0.9699569938760001,0.243276447751,0.0,0.0,-0.011868238913600001,0.0,0.0,0.0
281,0.0,0.0,0.9699569938760001,0.243276447751,0.0,0.0,-0.00314159265359,0.0,0.0,0.0
282,0.0,0.0,0.9697869185169999,0.243953546137,0.0,0.0,-0.0305432619099,0.0,0.0,0.0
283,0.0,0.0,0.9697869185169999,0.243953546137,0.0,0.0,0.00244346095279,0.0,0.0,0.0
284,0.0,0.0,0.9697869185169999,0.243953546137,0.0,0.0,0.004014257279590001,0.0,0.0,0.0
285,0.0,0.0,0.969744325821,0.244122802168,0.0,0.0,0.000698131700798,0.0,0.0,0.0
286,0.0,0.0,0.969765625862,0.24403817508200001,0.0,0.0,0.007679448708779999,0.0,0.0,0.0
287,0.0,0.0,0.969744325821,0.244122802168,0.0,0.0,0.00244346095279,0.0,0.0,0.0
288,0.0,0.0,0.9697869185169999,0.243953546137,0.0,0.0,-0.000174532925199,0.0,0.0,0.0
289,0.0,0.0,0.969765625862,0.24403817508200001,0.0,0.0,0.000698131700798,0.0,0.0,0.0
290,0.0,0.0,0.969829481672,0.243784282675,0.0,0.0,-0.004363323129989999,0.0,0.0,0.0
291,0.0,0.0,0.969765625862,0.24403817508200001,0.0,0.0,0.0013962634016,0.0,0.0,0.0
292,0.0,0.0,0.9697869185169999,0.243953546137,0.0,0.0,-0.00610865238198,0.0,0.0,0.0
293,0.0,0.0,0.969701703584,0.24429205076299998,0.0,0.0,-0.017453292519900004,0.0,0.0,0.0
294,0.0,0.0,0.969616370496,0.244630525623,0.0,0.0,0.0019198621771900001,0.0,0.0,0.0
295,0.0,0.0,0.969744325821,0.244122802168,0.0,0.0,0.00418879020479,0.0,0.0,0.0
296,0.0,0.0,0.9696590518089999,0.244461291916,0.0,0.0,-0.012217304764,0.0,0.0,0.0
297,0.0,0.0,0.9695095379950001,0.245053577276,0.0,0.0,-0.004363323129989999,0.0,0.0,0.0
298,0.0,0.0,0.969445349895,0.24530738587900003,0.0,0.0,-0.0033161255787899995,0.0,0.0,0.0
299,0.0,0.0,0.9694025209139999,0.24547658227400002,0.0,0.0,-0.0127409035396,0.0,0.0,0.0
300,0.0,0.0,0.969166433711,0.246407028649,0.0,0.0,-0.0371755130675,0.0,0.0,0.0
301,0.0,0.0,0.969209425089,0.246237873445,0.0,0.0,0.0287979326579,0.0,0.0,0.0
302,0.0,0.0,0.969273856799,0.245984126575,0.0,0.0,0.0232128790515,0.0,0.0,0.0
303,0.0,0.0,0.969209425089,0.246237873445,0.0,0.0,-0.0403171057211,0.0,0.0,0.0
304,0.0,0.0,0.9691018912899999,0.246660747381,0.0,0.0,-0.0373500459927,0.0,0.0,0.0
305,0.0,0.0,0.9690803623890001,0.246745316536,0.0,0.0,0.00855211333477,0.0,0.0,0.0
306,0.0,0.0,0.9691018912899999,0.246660747381,0.0,0.0,0.011868238913600001,0.0,0.0,0.0
307,0.0,0.0,0.969166433711,0.246407028649,0.0,0.0,-0.0169296937443,0.0,0.0,0.0
308,0.0,0.0,0.969123412811,0.24657617634799997,0.0,0.0,-0.026529004630299998,0.0,0.0,0.0
309,0.0,0.0,0.9689726071879999,0.24716813411,0.0,0.0,-0.00174532925199,0.0,0.0,0.0
310,0.0,0.0,0.969037282447,0.24691444920699998,0.0,0.0,0.00645771823238,0.0,0.0,0.0
311,0.0,0.0,0.969037282447,0.24691444920699998,0.0,0.0,-0.0010471975512,0.0,0.0,0.0
312,0.0,0.0,0.9689726071879999,0.24716813411,0.0,0.0,-0.0179768912955,0.0,0.0,0.0
313,0.0,0.0,0.968886270202,0.24750635429200002,0.0,0.0,-0.0518362787842,0.0,0.0,0.0
314,0.0,0.0,0.9669347558050001,0.255023877347,0.0,0.0,-0.27070056698399997,0.0,0.0,0.0
315,0.0,0.0,0.965313317604,0.26109423367,0.0,0.0,-0.216769893098,0.0,0.0,0.0
316,0.0,0.0,0.963279813515,0.268499536079,0.0,0.0,-0.241553568476,0.0,0.0,0.0
317,0.0,0.0,0.961117240795,0.276140633457,0.0,0.0,-0.263544717051,0.0,0.0,0.0
318,0.0,0.0,0.958097899798,0.286440944004,0.0,0.0,-0.546288055874,0.0,0.0,0.0
319,0.0,0.0,0.952847026724,0.303451056453,0.0,0.0,-0.611737902824,0.0,0.0,0.0
320,0.0,0.0,0.947294181569,0.32036500053000005,0.0,0.0,-0.518711853693,0.0,0.0,0.0
321,0.0,0.0,0.942641491092,0.333806859234,0.0,0.0,-0.53808500839,0.0,0.0,0.0
322,0.0,0.0,0.9367332976999999,0.350043895789,0.0,0.0,-0.549604181453,0.0,0.0,0.0
323,0.0,0.0,0.931469156217,0.363820300447,0.0,0.0,-0.515570261039,0.0,0.0,0.0
324,0.0,0.0,0.9218293309639999,0.387596032713,0.0,0.0,-0.502654824574,0.0,0.0,0.0
325,0.0,0.0,0.915802843794,0.401628125633,0.0,0.0,-0.605454717517,0.0,0.0,0.0
326,0.0,0.0,0.9083987490500001,0.41810490636299996,0.0,0.0,-0.529009296279,0.0,0.0,0.0
327,0.0,0.0,0.9063077870370001,0.422618261741,0.0,0.0,-0.530580092606,0.0,0.0,0.0
328,0.0,0.0,0.898985236231,0.437978932187,0.0,0.0,-0.557283630162,0.0,0.0,0.0
329,0.0,0.0,0.8967182990170001,0.44260173091300004,0.0,0.0,-0.552222175331,0.0,0.0,0.0
330,0.0,0.0,0.890490915048,0.45500102221600003,0.0,0.0,-0.492357381988,0.0,0.0,0.0
331,0.0,0.0,0.88257859847,0.470164883336,0.0,0.0,-0.566359342272,0.0,0.0,0.0
332,0.0,0.0,0.8800632982909999,0.474856389871,0.0,0.0,-0.56897733615,0.0,0.0,0.0
333,0.0,0.0,0.8729220772700002,0.48785965913900003,0.0,0.0,-0.519235452468,0.0,0.0,0.0
334,0.0,0.0,0.8647572681640001,0.502190070748,0.0,0.0,-0.555014702134,0.0,0.0,0.0
335,0.0,0.0,0.862027514351,0.506861484533,0.0,0.0,-0.5810201079890001,0.0,0.0,0.0
336,0.0,0.0,0.852913627072,0.522052051767,0.0,0.0,-0.5614724203670001,0.0,0.0,0.0
337,0.0,0.0,0.850260370389,0.526362330098,0.0,0.0,-0.540877535193,0.0,0.0,0.0
338,0.0,0.0,0.842358350935,0.538917812481,0.0,0.0,-0.5614724203670001,0.0,0.0,0.0
339,0.0,0.0,0.83253469758,0.55397290306,0.0,0.0,-0.573689725131,0.0,0.0,0.0
340,0.0,0.0,0.8241756137530001,0.5663343161909999,0.0,0.0,-0.51155600376,0.0,0.0,0.0
341,0.0,0.0,0.8145207270710001,0.580134454392,0.0,0.0,-0.522900643898,0.0,0.0,0.0
342,0.0,0.0,0.8055147827150001,0.592575678566,0.0,0.0,-0.550302313154,0.0,0.0,0.0
343,0.0,0.0,0.7946795626090001,0.607029153148,0.0,0.0,-0.5335471523349999,0.0,0.0,0.0
344,0.0,0.0,0.785856893175,0.6184083953580001,0.0,0.0,-0.540004870567,0.0,0.0,0.0
345,0.0,0.0,0.774503060199,0.632570161913,0.0,0.0,-0.573864258056,0.0,0.0,0.0
346,0.0,0.0,0.7653708976000001,0.643589456957,0.0,0.0,-0.479965544298,0.0,0.0,0.0
347,0.0,0.0,0.753964819364,0.6569147974899999,0.0,0.0,-0.5682792044489999,0.0,0.0,0.0
348,0.0,0.0,0.743378350842,0.668871159118,0.0,0.0,-0.55117497778,0.0,0.0,0.0
349,0.0,0.0,0.738337641411,0.674431262084,0.0,0.0,-0.540004870567,0.0,0.0,0.0
350,0.0,0.0,0.72795227954,0.685627798965,0.0,0.0,-0.540179403492,0.0,0.0,0.0
351,0.0,0.0,0.715204973482,0.698914762976,0.0,0.0,-0.553618438733,0.0,0.0,0.0
352,0.0,0.0,0.7115969922769999,0.702587873922,0.0,0.0,-0.553792971658,0.0,0.0,0.0
353,0.0,0.0,0.7004734336470001,0.713678477155,0.0,0.0,-0.558330827713,0.0,0.0,0.0
354,0.0,0.0,0.6872143115420001,0.726454740512,0.0,0.0,-0.5569345643110001,0.0,0.0,0.0
355,0.0,0.0,0.683401200631,0.7300430117300001,0.0,0.0,-0.567755605674,0.0,0.0,0.0
356,0.0,0.0,0.6710738596670001,0.741390500932,0.0,0.0,-0.587652359146,0.0,0.0,0.0
357,0.0,0.0,0.665360657468,0.7465220663140001,0.0,0.0,-0.548731516827,0.0,0.0,0.0
358,0.0,0.0,0.654014944924,0.7564816268860001,0.0,0.0,-0.5030038904249999,0.0,0.0,0.0
359,0.0,0.0,0.650641689512,0.759384877298,0.0,0.0,-0.48904125640900004,0.0,0.0,0.0
360,0.0,0.0,0.6371549910600001,0.770735698776,0.0,0.0,-0.548906049752,0.0,0.0,0.0
361,0.0,0.0,0.633178260031,0.77400600193,0.0,0.0,-0.557109097237,0.0,0.0,0.0
362,0.0,0.0,0.6233338405009999,0.7819558320559999,0.0,0.0,-0.17715091907699998,0.0,0.0,0.0
363,0.0,0.0,0.619299523583,0.785154825553,0.0,0.0,-0.21101030656599998,0.0,0.0,0.0
364,0.0,0.0,0.613044952383,0.790048027881,0.0,0.0,-0.32358404331999996,0.0,0.0,0.0
365,0.0,0.0,0.6064048261199999,0.7951560770430001,0.0,0.0,-0.294087978961,0.0,0.0,0.0
366,0.0,0.0,0.599582468446,0.800312978486,0.0,0.0,-0.244346095279,0.0,0.0,0.0
367,0.0,0.0,0.59454215154,0.804064443961,0.0,0.0,-0.148178453494,0.0,0.0,0.0
368,0.0,0.0,0.59454215154,0.804064443961,0.0,0.0,-0.028274333882299996,0.0,0.0,0.0
369,0.0,0.0,0.594261443885,0.804271929332,0.0,0.0,-0.008028514559169999,0.0,0.0,0.0
370,0.0,0.0,0.593208145567,0.805049126472,0.0,0.0,-0.0256563400043,0.0,0.0,0.0
371,0.0,0.0,0.592997363872,0.8052044004109999,0.0,0.0,-0.005410520681180001,0.0,0.0,0.0
372,0.0,0.0,0.592505381884,0.805566491631,0.0,0.0,-0.0190240888467,0.0,0.0,0.0
373,0.0,0.0,0.5918021669829999,0.806083243316,0.0,0.0,-0.0204203522483,0.0,0.0,0.0
374,0.0,0.0,0.59138002168,0.8063929996960001,0.0,0.0,-0.0188495559215,0.0,0.0,0.0
375,0.0,0.0,0.59060566762,0.8069603121439999,0.0,0.0,-0.0392699081699,0.0,0.0,0.0
376,0.0,0.0,0.590183063249,0.807269441918,0.0,0.0,-0.00855211333477,0.0,0.0,0.0
377,0.0,0.0,0.5901126134529999,0.807320942032,0.0,0.0,-0.00593411945678,0.0,0.0,0.0
378,0.0,0.0,0.589830769336,0.807526881004,0.0,0.0,-0.036128315516300004,0.0,0.0,0.0
379,0.0,0.0,0.588914279787,0.8081955029960001,0.0,0.0,-0.00157079632679,0.0,0.0,0.0
380,0.0,0.0,0.588843749182,0.8082468923839999,0.0,0.0,-0.0125663706144,0.0,0.0,0.0
381,0.0,0.0,0.587855850106,0.8089656973549999,0.0,0.0,-0.0689405054538,0.0,0.0,0.0
382,0.0,0.0,0.587290942296,0.809375900986,0.0,0.0,-0.0685914396034,0.0,0.0,0.0
383,0.0,0.0,0.58665507888,0.809836908534,0.0,0.0,-0.0132645023152,0.0,0.0,0.0
384,0.0,0.0,0.586584405044,0.809888100764,0.0,0.0,0.0,0.0,0.0,0.0
385,0.0,0.0,0.586937729543,0.8096320779459999,0.0,0.0,0.0207694180987,0.0,0.0,0.0
386,0.0,0.0,0.58686707358,0.8096832948430001,0.0,0.0,-0.0212930168743,0.0,0.0,0.0
387,0.0,0.0,0.5856652388660001,0.810553038353,0.0,0.0,-0.035604716740699996,0.0,0.0,0.0
388,0.0,0.0,0.584957674987,0.811063818989,0.0,0.0,-0.00314159265359,0.0,0.0,0.0
389,0.0,0.0,0.584957674987,0.811063818989,0.0,0.0,-0.013962634016,0.0,0.0,0.0
390,0.0,0.0,0.5846745246739999,0.8112679583210001,0.0,0.0,-0.00733038285838,0.0,0.0,0.0
391,0.0,0.0,0.584532922799,0.8113699909190001,0.0,0.0,-0.020071286397900002,0.0,0.0,0.0
392,0.0,0.0,0.584249665637,0.8115739819650001,0.0,0.0,-0.023387411976700002,0.0,0.0,0.0
393,0.0,0.0,0.582052011514,0.813151557763,0.0,0.0,-0.10821041362400001,0.0,0.0,0.0
394,0.0,0.0,0.579636783784,0.814874959048,0.0,0.0,-0.0637045176978,0.0,0.0,0.0
395,0.0,0.0,0.5806319085180001,0.8141661911489999,0.0,0.0,0.024783675378299997,0.0,0.0,0.0
396,0.0,0.0,0.5800633718399999,0.8145713502509999,0.0,0.0,-0.0523598775598,0.0,0.0,0.0
397,0.0,0.0,0.578427255041,0.815733970499,0.0,0.0,-0.0401425727959,0.0,0.0,0.0
398,0.0,0.0,0.578569618666,0.8156330034739999,0.0,0.0,0.0310668606855,0.0,0.0,0.0
399,0.0,0.0,0.578711964667,0.815532011604,0.0,0.0,-0.0328121899375,0.0,0.0,0.0
400,0.0,0.0,0.578284873795,0.815834912675,0.0,0.0,-0.054454272662199994,0.0,0.0,0.0
401,0.0,0.0,0.577501462184,0.816389650335,0.0,0.0,-0.0176278254451,0.0,0.0,0.0
402,0.0,0.0,0.577358966516,0.81649043092,0.0,0.0,-0.0151843644924,0.0,0.0,0.0
403,0.0,0.0,0.577145190037,0.8166415551620001,0.0,0.0,-0.028274333882299996,0.0,0.0,0.0
404,0.0,0.0,0.57643231617,0.8171448983349999,0.0,0.0,-0.021816615649900003,0.0,0.0,0.0
405,0.0,0.0,0.57636100463,0.817195198433,0.0,0.0,-0.0132645023152,0.0,0.0,0.0
406,0.0,0.0,0.576004381105,0.8174466055640001,0.0,0.0,-0.0185004900711,0.0,0.0,0.0
407,0.0,0.0,0.575861700985,0.817547124842,0.0,0.0,-0.0249582083035,0.0,0.0,0.0
408,0.0,0.0,0.575362182454,0.8178987461789999,0.0,0.0,-0.013962634016,0.0,0.0,0.0
409,0.0,0.0,0.575219423431,0.817999153366,0.0,0.0,-0.0237364778271,0.0,0.0,0.0
410,0.0,0.0,0.574576791052,0.818450677307,0.0,0.0,-0.0261799387799,0.0,0.0,0.0
411,0.0,0.0,0.574005264714,0.8188516080949999,0.0,0.0,-0.0239110107523,0.0,0.0,0.0
412,0.0,0.0,0.5739338042450001,0.8189016963860001,0.0,0.0,-0.014137166941200001,0.0,0.0,0.0
413,0.0,0.0,0.573504949666,0.819202095156,0.0,0.0,-0.0280998009571,0.0,0.0,0.0
414,0.0,0.0,0.573361963194,0.819302178175,0.0,0.0,-0.007853981633970001,0.0,0.0,0.0
415,0.0,0.0,0.572861373028,0.819652272182,0.0,0.0,-0.0314159265359,0.0,0.0,0.0
416,0.0,0.0,0.572145873446,0.8201518758740001,0.0,0.0,-0.0310668606855,0.0,0.0,0.0
417,0.0,0.0,0.571931138582,0.820301635205,0.0,0.0,-0.00872664625997,0.0,0.0,0.0
418,0.0,0.0,0.571429938149,0.820650854984,0.0,0.0,-0.0342084533391,0.0,0.0,0.0
419,0.0,0.0,0.5707852242979999,0.8210994018529999,0.0,0.0,-0.0280998009571,0.0,0.0,0.0
420,0.0,0.0,0.570211849726,0.821497684983,0.0,0.0,-0.014137166941200001,0.0,0.0,0.0
421,0.0,0.0,0.569925058204,0.821696676415,0.0,0.0,0.00261799387799,0.0,0.0,0.0
422,0.0,0.0,0.569853349472,0.82174640863,0.0,0.0,-0.011344640138,0.0,0.0,0.0
423,0.0,0.0,0.5690642671180001,0.822293049885,0.0,0.0,-0.0486946861306,0.0,0.0,0.0
424,0.0,0.0,0.568059222188,0.822987679183,0.0,0.0,-0.0364773813667,0.0,0.0,0.0
425,0.0,0.0,0.5677719106920001,0.823185919115,0.0,0.0,-0.0301941960595,0.0,0.0,0.0
426,0.0,0.0,0.5677719106920001,0.823185919115,0.0,0.0,-0.00279252680319,0.0,0.0,0.0
427,0.0,0.0,0.566909561255,0.823780036999,0.0,0.0,-0.0394444410951,0.0,0.0,0.0
428,0.0,0.0,0.566621973244,0.823977875575,0.0,0.0,-0.03403392041390001,0.0,0.0,0.0
429,0.0,0.0,0.566262391144,0.824225032607,0.0,0.0,0.00855211333477,0.0,0.0,0.0
430,0.0,0.0,0.566406236925,0.824126188622,0.0,0.0,0.0178023583703,0.0,0.0,0.0
431,0.0,0.0,0.566118528114,0.8243238514839999,0.0,0.0,-0.044680428851100004,0.0,0.0,0.0
432,0.0,0.0,0.565758795103,0.824570788813,0.0,0.0,-0.0438077642251,0.0,0.0,0.0
433,0.0,0.0,0.565470931137,0.8247682256479999,0.0,0.0,-0.011868238913600001,0.0,0.0,0.0
434,0.0,0.0,0.565398954378,0.824817569156,0.0,0.0,-0.00855211333477,0.0,0.0,0.0
435,0.0,0.0,0.5649670034250001,0.8251134982780001,0.0,0.0,-0.0328121899375,0.0,0.0,0.0
436,0.0,0.0,0.56424674103,0.825606210755,0.0,0.0,-0.0230383461263,0.0,0.0,0.0
437,0.0,0.0,0.564030578496,0.8257539019110001,0.0,0.0,-0.026354471705099997,0.0,0.0,0.0
438,0.0,0.0,0.563526048938,0.8260982944959999,0.0,0.0,-0.000174532925199,0.0,0.0,0.0
439,0.0,0.0,0.563526048938,0.8260982944959999,0.0,0.0,0.00226892802759,0.0,0.0,0.0
440,0.0,0.0,0.563093427655,0.826393242792,0.0,0.0,-0.023387411976700002,0.0,0.0,0.0
441,0.0,0.0,0.5624442063139999,0.8268352404100001,0.0,0.0,-0.0230383461263,0.0,0.0,0.0
442,0.0,0.0,0.562011199316,0.8271296221529999,0.0,0.0,-0.0127409035396,0.0,0.0,0.0
443,0.0,0.0,0.561722442377,0.8273257506749999,0.0,0.0,-0.0013962634016,0.0,0.0,0.0
444,0.0,0.0,0.561650242447,0.827374767055,0.0,0.0,-0.0193731546971,0.0,0.0,0.0
445,0.0,0.0,0.560783509816,0.8279624720469999,0.0,0.0,-0.0239110107523,0.0,0.0,0.0
446,0.0,0.0,0.560277631725,0.828304880698,0.0,0.0,-0.0102974425868,0.0,0.0,0.0
447,0.0,0.0,0.560060762816,0.828451532652,0.0,0.0,-0.0160570291183,0.0,0.0,0.0
448,0.0,0.0,0.559482258102,0.828842326905,0.0,0.0,-0.0230383461263,0.0,0.0,0.0
449,0.0,0.0,0.559337589306,0.8289399623549999,0.0,0.0,-0.0134390352404,0.0,0.0,0.0
450,0.0,0.0,0.5591205541650001,0.8290863681849999,0.0,0.0,-0.0013962634016,0.0,0.0,0.0
451,0.0,0.0,0.559048200602,0.829135157501,0.0,0.0,0.00261799387799,0.0,0.0,0.0
452,0.0,0.0,0.559048200602,0.829135157501,0.0,0.0,-0.004363323129989999,0.0,0.0,0.0
453,0.0,0.0,0.558686368935,0.8293790093600001,0.0,0.0,-0.0179768912955,0.0,0.0,0.0
454,0.0,0.0,0.558324430902,0.8296227033169999,0.0,0.0,-0.007853981633970001,0.0,0.0,0.0
455,0.0,0.0,0.558252030537,0.829671423156,0.0,0.0,-0.012391837689200002,0.0,0.0,0.0
456,0.0,0.0,0.557600236013,0.8301096173379999,0.0,0.0,-0.0319395253115,0.0,0.0,0.0
457,0.0,0.0,0.557455346062,0.830206924295,0.0,0.0,-0.0144862327916,0.0,0.0,0.0
458,0.0,0.0,0.557382894718,0.8302555682899999,0.0,0.0,0.0050614548307799994,0.0,0.0,0.0
459,0.0,0.0,0.557382894718,0.8302555682899999,0.0,0.0,-0.00226892802759,0.0,0.0,0.0
460,0.0,0.0,0.556803131202,0.830644492598,0.0,0.0,-0.0333357887131,0.0,0.0,0.0
461,0.0,0.0,0.556585649903,0.83079023485,0.0,0.0,-0.0286233997327,0.0,0.0,0.0
462,0.0,0.0,0.5562956155,0.8309844692739999,0.0,0.0,-0.00174532925199,0.0,0.0,0.0
463,0.0,0.0,0.556223096307,0.831033012061,0.0,0.0,-0.00296705972839,0.0,0.0,0.0
464,0.0,0.0,0.555642790316,0.831421126488,0.0,0.0,-0.0324631240871,0.0,0.0,0.0
465,0.0,0.0,0.554989622383,0.8318572708390001,0.0,0.0,-0.011344640138,0.0,0.0,0.0
466,0.0,0.0,0.554989622383,0.8318572708390001,0.0,0.0,0.0129154364648,0.0,0.0,0.0
467,0.0,0.0,0.554699215611,0.83205094808,0.0,0.0,-0.0321140582367,0.0,0.0,0.0
468,0.0,0.0,0.553827589908,0.8326313714110001,0.0,0.0,-0.027925268031900003,0.0,0.0,0.0
469,0.0,0.0,0.55397290306,0.83253469758,0.0,0.0,0.0212930168743,0.0,0.0,0.0
470,0.0,0.0,0.553827589908,0.8326313714110001,0.0,0.0,-0.030892327760299997,0.0,0.0,0.0
471,0.0,0.0,0.553100771174,0.833114360053,0.0,0.0,-0.0158824961931,0.0,0.0,0.0
472,0.0,0.0,0.553028066124,0.833162624029,0.0,0.0,0.0160570291183,0.0,0.0,0.0
473,0.0,0.0,0.553173472011,0.833066089733,0.0,0.0,0.0125663706144,0.0,0.0,0.0
474,0.0,0.0,0.5527372038180001,0.8333556164779999,0.0,0.0,-0.036128315516300004,0.0,0.0,0.0
475,0.0,0.0,0.5521552771930001,0.833741296727,0.0,0.0,-0.0132645023152,0.0,0.0,0.0
476,0.0,0.0,0.5521552771930001,0.833741296727,0.0,0.0,0.00157079632679,0.0,0.0,0.0
477,0.0,0.0,0.552446274162,0.833548507385,0.0,0.0,-0.004363323129989999,0.0,0.0,0.0
478,0.0,0.0,0.551354688728,0.834270943529,0.0,0.0,-0.062133721371,0.0,0.0,0.0
479,0.0,0.0,0.551063439648,0.8344633517919999,0.0,0.0,-0.03525565089030001,0.0,0.0,0.0
480,0.0,0.0,0.550699283877,0.834703719135,0.0,0.0,0.0193731546971,0.0,0.0,0.0
481,0.0,0.0,0.550917789925,0.8345595177959999,0.0,0.0,0.023561944901900004,0.0,0.0,0.0
482,0.0,0.0,0.55062644014,0.834751773535,0.0,0.0,-0.0389208423195,0.0,0.0,0.0
483,0.0,0.0,0.5498977722249999,0.83523196784,0.0,0.0,-0.014660765716799999,0.0,0.0,0.0
484,0.0,0.0,0.549751988372,0.835327930385,0.0,0.0,-0.0242600766027,0.0,0.0,0.0
485,0.0,0.0,0.549533281194,0.835471826491,0.0,0.0,0.015533430342700001,0.0,0.0,0.0
486,0.0,0.0,0.5494603704300001,0.835519779135,0.0,0.0,-0.029670597283900004,0.0,0.0,0.0
487,0.0,0.0,0.549168685539,0.83571152608,0.0,0.0,-0.0364773813667,0.0,0.0,0.0
488,0.0,0.0,0.548001277184,0.836477495337,0.0,0.0,-0.0624827872214,0.0,0.0,0.0
489,0.0,0.0,0.547563223493,0.836764313459,0.0,0.0,-0.050090949532199995,0.0,0.0,0.0
490,0.0,0.0,0.547636242869,0.836716526367,0.0,0.0,0.008028514559169999,0.0,0.0,0.0
491,0.0,0.0,0.547344140345,0.836907636499,0.0,0.0,-0.030892327760299997,0.0,0.0,0.0
492,0.0,0.0,0.546613592335,0.837384965637,0.0,0.0,-0.012042771838799999,0.0,0.0,0.0
493,0.0,0.0,0.546613592335,0.837384965637,0.0,0.0,-0.000174532925199,0.0,0.0,0.0
494,0.0,0.0,0.546101961014,0.83771871662,0.0,0.0,-0.030892327760299997,0.0,0.0,0.0
495,0.0,0.0,0.5455901259120001,0.8380521550040001,0.0,0.0,-0.0134390352404,0.0,0.0,0.0
496,0.0,0.0,0.5454438499090001,0.83814736568,0.0,0.0,-0.0115191730632,0.0,0.0,0.0
497,0.0,0.0,0.543980176779,0.839098067732,0.0,0.0,-0.0640535835482,0.0,0.0,0.0
498,0.0,0.0,0.542368222605,0.8401408876540001,0.0,0.0,-0.0767944870878,0.0,0.0,0.0
499,0.0,0.0,0.541708210283,0.840566603496,0.0,0.0,-0.0415388361975,0.0,0.0,0.0
500,0.0,0.0,0.541194636325,0.840897357359,0.0,0.0,-0.017453292519900004,0.0,0.0,0.0
501,0.0,0.0,0.54082767413,0.8411334180110001,0.0,0.0,0.0010471975512,0.0,0.0,0.0
502,0.0,0.0,0.5407542693330001,0.841180610926,0.0,0.0,-0.0101229096616,0.0,0.0,0.0
503,0.0,0.0,0.540387183587,0.8414164794050001,0.0,0.0,-0.00471238898038,0.0,0.0,0.0
504,0.0,0.0,0.540387183587,0.8414164794050001,0.0,0.0,-0.0136135681656,0.0,0.0,0.0
505,0.0,0.0,0.539946544894,0.841699310121,0.0,0.0,-0.0659734457254,0.0,0.0,0.0
506,0.0,0.0,0.538108958339,0.842875286715,0.0,0.0,-0.00488692190558,0.0,0.0,0.0
507,0.0,0.0,0.53862374112,0.842546417417,0.0,0.0,-0.005759586531579999,0.0,0.0,0.0
508,0.0,0.0,0.538550213024,0.842593417997,0.0,0.0,-0.00645771823238,0.0,0.0,0.0
509,0.0,0.0,0.538182511035,0.842828324641,0.0,0.0,-0.042411500823499995,0.0,0.0,0.0
510,0.0,0.0,0.5378882756669999,0.843016134425,0.0,0.0,-0.035081117965099995,0.0,0.0,0.0
511,0.0,0.0,0.537520389296,0.843250752203,0.0,0.0,0.000174532925199,0.0,0.0,0.0
512,0.0,0.0,0.537814706583,0.843063070822,0.0,0.0,0.0019198621771900001,0.0,0.0,0.0
513,0.0,0.0,0.5373732060890001,0.843344554365,0.0,0.0,-0.0267035375555,0.0,0.0,0.0
514,0.0,0.0,0.536931558271,0.8436258067010001,0.0,0.0,0.00645771823238,0.0,0.0,0.0
515,0.0,0.0,0.537005176466,0.843578947371,0.0,0.0,0.004363323129989999,0.0,0.0,0.0
516,0.0,0.0,0.5375939747590001,0.8432038414899999,0.0,0.0,0.0329867228627,0.0,0.0,0.0
517,0.0,0.0,0.537520389296,0.843250752203,0.0,0.0,-0.011868238913600001,0.0,0.0,0.0
518,0.0,0.0,0.536342465553,0.844000450026,0.0,0.0,-0.044505895925900006,0.0,0.0,0.0
519,0.0,0.0,0.53590047445,0.844281162578,0.0,0.0,-0.00296705972839,0.0,0.0,0.0
520,0.0,0.0,0.536268810577,0.844047251522,0.0,0.0,-0.0132645023152,0.0,0.0,0.0
521,0.0,0.0,0.535384632481,0.8446083680040001,0.0,0.0,-0.0387463093943,0.0,0.0,0.0
522,0.0,0.0,0.535016051605,0.844841893211,0.0,0.0,0.0019198621771900001,0.0,0.0,0.0
523,0.0,0.0,0.53486859073,0.84493525826,0.0,0.0,-0.028972465583099998,0.0,0.0,0.0
524,0.0,0.0,0.53435234939,0.845261833222,0.0,0.0,-0.0226892802759,0.0,0.0,0.0
525,0.0,0.0,0.533835908652,0.8455880927689999,0.0,0.0,-0.00174532925199,0.0,0.0,0.0
526,0.0,0.0,0.533762115138,0.845634675521,0.0,0.0,-0.008901179185170001,0.0,0.0,0.0
527,0.0,0.0,0.5331716207370001,0.846007105668,0.0,0.0,-0.0197222205475,0.0,0.0,0.0
528,0.0,0.0,0.5329501183259999,0.846146660678,0.0,0.0,-0.011868238913600001,0.0,0.0,0.0
529,0.0,0.0,0.5328762760710001,0.846193166128,0.0,0.0,-0.00628318530718,0.0,0.0,0.0
530,0.0,0.0,0.532728579387,0.846286157694,0.0,0.0,-0.000698131700798,0.0,0.0,0.0
531,0.0,0.0,0.532654724959,0.84633264381,0.0,0.0,-0.00942477796077,0.0,0.0,0.0
532,0.0,0.0,0.532211513228,0.846611425146,0.0,0.0,-0.026529004630299998,0.0,0.0,0.0
533,0.0,0.0,0.531694248471,0.846936376679,0.0,0.0,-0.008901179185170001,0.0,0.0,0.0
534,0.0,0.0,0.531546422091,0.8470291619320001,0.0,0.0,-0.0144862327916,0.0,0.0,0.0
535,0.0,0.0,0.531546422091,0.8470291619320001,0.0,0.0,-0.00453785605519,0.0,0.0,0.0
536,0.0,0.0,0.531102845816,0.847307362866,0.0,0.0,-0.0198967534727,0.0,0.0,0.0
537,0.0,0.0,0.530659123936,0.847585331506,0.0,0.0,-0.012217304764,0.0,0.0,0.0
538,0.0,0.0,0.5304372084319999,0.847724228692,0.0,0.0,-0.014835298642,0.0,0.0,0.0
539,0.0,0.0,0.530141264543,0.8479093345569999,0.0,0.0,-0.0150098315672,0.0,0.0,0.0
540,0.0,0.0,0.529993268373,0.848001848748,0.0,0.0,-0.007679448708779999,0.0,0.0,0.0
541,0.0,0.0,0.529845256058,0.8480943371070001,0.0,0.0,-0.0013962634016,0.0,0.0,0.0
542,0.0,0.0,0.5304372084319999,0.847724228692,0.0,0.0,0.0443313630007,0.0,0.0,0.0
543,0.0,0.0,0.530141264543,0.8479093345569999,0.0,0.0,-0.0214675497995,0.0,0.0,0.0
544,0.0,0.0,0.529919264233,0.8480480961560001,0.0,0.0,-0.028448866807499997,0.0,0.0,0.0
545,0.0,0.0,0.5291790009740001,0.848510214982,0.0,0.0,-0.0237364778271,0.0,0.0,0.0
546,0.0,0.0,0.5291790009740001,0.848510214982,0.0,0.0,0.027052603405900003,0.0,0.0,0.0
547,0.0,0.0,0.529253045444,0.848464032171,0.0,0.0,-0.0239110107523,0.0,0.0,0.0
548,0.0,0.0,0.527919628867,0.849294333819,0.0,0.0,-0.0476474885794,0.0,0.0,0.0
549,0.0,0.0,0.527771391003,0.8493864602399999,0.0,0.0,0.0179768912955,0.0,0.0,0.0
550,0.0,0.0,0.527919628867,0.849294333819,0.0,0.0,0.00645771823238,0.0,0.0,0.0
551,0.0,0.0,0.527326580967,0.8496626842489999,0.0,0.0,-0.030717794835099996,0.0,0.0,0.0
552,0.0,0.0,0.526881626361,0.849938675319,0.0,0.0,-0.015358897417600001,0.0,0.0,0.0
553,0.0,0.0,0.526807453214,0.8499846511779999,0.0,0.0,-0.005410520681180001,0.0,0.0,0.0
554,0.0,0.0,0.526807453214,0.8499846511779999,0.0,0.0,0.006632251157579999,0.0,0.0,0.0
555,0.0,0.0,0.52651072051,0.8501684898819999,0.0,0.0,-0.020071286397900002,0.0,0.0,0.0
556,0.0,0.0,0.526362330098,0.850260370389,0.0,0.0,-0.0127409035396,0.0,0.0,0.0
557,0.0,0.0,0.525991283929,0.8504899583359999,0.0,0.0,-0.0181514242207,0.0,0.0,0.0
558,0.0,0.0,0.525842837419,0.850581748179,0.0,0.0,-0.010471975512,0.0,0.0,0.0
559,0.0,0.0,0.525768608156,0.8506276333849999,0.0,0.0,0.004014257279590001,0.0,0.0,0.0
560,0.0,0.0,0.525842837419,0.850581748179,0.0,0.0,0.00296705972839,0.0,0.0,0.0
561,0.0,0.0,0.525545896347,0.850765250132,0.0,0.0,-0.009250245035569999,0.0,0.0,0.0
562,0.0,0.0,0.525471651072,0.850811109424,0.0,0.0,-0.004363323129989999,0.0,0.0,0.0
563,0.0,0.0,0.5250260954070001,0.8510861290970001,0.0,0.0,-0.00680678408278,0.0,0.0,0.0
564,0.0,0.0,0.524877544859,0.851177750474,0.0,0.0,0.010646508437200001,0.0,0.0,0.0
565,0.0,0.0,0.525100364684,0.851040308686,0.0,0.0,0.0134390352404,0.0,0.0,0.0
566,0.0,0.0,0.52450609855,0.851406690474,0.0,0.0,-0.028972465583099998,0.0,0.0,0.0
567,0.0,0.0,0.524134552382,0.851635468378,0.0,0.0,0.006632251157579999,0.0,0.0,0.0
568,0.0,0.0,0.524060231171,0.851681204504,0.0,0.0,-0.022340214425499997,0.0,0.0,0.0
569,0.0,0.0,0.523465517862,0.8520468599850001,0.0,0.0,-0.0176278254451,0.0,0.0,0.0
570,0.0,0.0,0.5233167996589999,0.8521382089749999,0.0,0.0,-0.0005235987755980001,0.0,0.0,0.0
571,0.0,0.0,0.523093692466,0.852275183789,0.0,0.0,-0.011344640138,0.0,0.0,0.0
572,0.0,0.0,0.522721767481,0.852503345332,0.0,0.0,-0.0160570291183,0.0,0.0,0.0
573,0.0,0.0,0.522572969617,0.852594564506,0.0,0.0,0.0132645023152,0.0,0.0,0.0
574,0.0,0.0,0.522944934419,0.85236646788,0.0,0.0,-0.0013962634016,0.0,0.0,0.0
575,0.0,0.0,0.522200905326,0.8528224988099999,0.0,0.0,-0.026354471705099997,0.0,0.0,0.0
576,0.0,0.0,0.5222753261399999,0.852776924937,0.0,0.0,0.012042771838799999,0.0,0.0,0.0
577,0.0,0.0,0.522200905326,0.8528224988099999,0.0,0.0,-0.009250245035569999,0.0,0.0,0.0
578,0.0,0.0,0.522126480535,0.852868066189,0.0,0.0,-0.014660765716799999,0.0,0.0,0.0
579,0.0,0.0,0.521903182306,0.853004729353,0.0,0.0,-0.00610865238198,0.0,0.0,0.0
580,0.0,0.0,0.521754296948,0.853095805649,0.0,0.0,-0.0111701072128,0.0,0.0,0.0
581,0.0,0.0,0.521679848308,0.8531413340530001,0.0,0.0,-0.015358897417600001,0.0,0.0,0.0
582,0.0,0.0,0.5213820140259999,0.853323382693,0.0,0.0,-0.0115191730632,0.0,0.0,0.0
583,0.0,0.0,0.521233073059,0.853414368024,0.0,0.0,-0.012042771838799999,0.0,0.0,0.0
584,0.0,0.0,0.5211585966219999,0.85345985094,0.0,0.0,-0.0116937059884,0.0,0.0,0.0
585,0.0,0.0,0.521084116215,0.853505327358,0.0,0.0,-0.00157079632679,0.0,0.0,0.0
586,0.0,0.0,0.521084116215,0.853505327358,0.0,0.0,-0.0111701072128,0.0,0.0,0.0
587,0.0,0.0,0.52071165467,0.853732611941,0.0,0.0,-0.0553269372882,0.0,0.0,0.0
588,0.0,0.0,0.512942084648,0.8584232160169999,0.0,0.0,-0.318871654339,0.0,0.0,0.0
589,0.0,0.0,0.5077639195520001,0.861496257683,0.0,0.0,-0.19006635554200002,0.0,0.0,0.0
590,0.0,0.0,0.506109030711,0.862469506147,0.0,0.0,-0.22584560520799998,0.0,0.0,0.0
591,0.0,0.0,0.498941577478,0.866635622545,0.0,0.0,-0.262322986575,0.0,0.0,0.0
592,0.0,0.0,0.496822499816,0.867852178471,0.0,0.0,-0.26686084263,0.0,0.0,0.0
593,0.0,0.0,0.490447519859,0.871470728289,0.0,0.0,-0.24102996969999999,0.0,0.0,0.0
594,0.0,0.0,0.48358794857500004,0.875295776291,0.0,0.0,-0.227067335684,0.0,0.0,0.0
595,0.0,0.0,0.478155439381,0.8782752278129999,0.0,0.0,-0.218166156499,0.0,0.0,0.0
596,0.0,0.0,0.468932113235,0.8832342119600001,0.0,0.0,-0.531452757232,0.0,0.0,0.0
597,0.0,0.0,0.453057191132,0.891481453292,0.0,0.0,-0.596029939556,0.0,0.0,0.0
598,0.0,0.0,0.436958784165,0.899481528961,0.0,0.0,-0.52935836213,0.0,0.0,0.0
599,0.0,0.0,0.42388329376500006,0.90571681737,0.0,0.0,-0.5387831400909999,0.0,0.0,0.0
600,0.0,0.0,0.409843434785,0.9121558852320001,0.0,0.0,-0.48973938811000006,0.0,0.0,0.0
601,0.0,0.0,0.396346847517,0.9181008531,0.0,0.0,-0.554491103359,0.0,0.0,0.0
602,0.0,0.0,0.379052424524,0.9253751992910001,0.0,0.0,-0.5667084081229999,0.0,0.0,0.0
603,0.0,0.0,0.36455176232500003,0.9311831251620001,0.0,0.0,-0.543670061996,0.0,0.0,0.0
604,0.0,0.0,0.357471611696,0.933924004848,0.0,0.0,-0.55553830091,0.0,0.0,0.0
605,0.0,0.0,0.343249904718,0.939244112524,0.0,0.0,-0.515221195189,0.0,0.0,0.0
606,0.0,0.0,0.326805556099,0.945091597943,0.0,0.0,-0.550825911929,0.0,0.0,0.0
607,0.0,0.0,0.32176998668400003,0.946817868267,0.0,0.0,-0.575958653158,0.0,0.0,0.0
608,0.0,0.0,0.307107480437,0.951674837042,0.0,0.0,-0.541750199819,0.0,0.0,0.0
609,0.0,0.0,0.29028467725400003,0.956940335732,0.0,0.0,-0.527962098728,0.0,0.0,0.0
610,0.0,0.0,0.285437469354,0.9583973346629999,0.0,0.0,-0.554316570433,0.0,0.0,0.0
611,0.0,0.0,0.268667656032,0.963232936834,0.0,0.0,-0.516093859815,0.0,0.0,0.0
612,0.0,0.0,0.254179970591,0.967156937911,0.0,0.0,-0.5333726194089999,0.0,0.0,0.0
613,0.0,0.0,0.23632941169399999,0.9716729949770001,0.0,0.0,-0.550127780229,0.0,0.0,0.0
614,0.0,0.0,0.23174790349399998,0.9727758782089999,0.0,0.0,-0.5021312257989999,0.0,0.0,0.0
615,0.0,0.0,0.21737669096200002,0.9760877902249999,0.0,0.0,-0.535990613287,0.0,0.0,0.0
616,0.0,0.0,0.19962447127,0.979872476637,0.0,0.0,-0.566184809347,0.0,0.0,0.0
617,0.0,0.0,0.19474795149000002,0.980853320018,0.0,0.0,-0.531278224307,0.0,0.0,0.0
618,0.0,0.0,0.17957490139199997,0.9837443035619999,0.0,0.0,-0.555189235059,0.0,0.0,0.0
619,0.0,0.0,0.161431579828,0.9868839065639999,0.0,0.0,-0.579100245812,0.0,0.0,0.0
620,0.0,0.0,0.156520656512,0.987674685352,0.0,0.0,-0.5316272901569999,0.0,0.0,0.0
621,0.0,0.0,0.139259517621,0.990255919827,0.0,0.0,-0.546462588799,0.0,0.0,0.0
622,0.0,0.0,0.12308187603399999,0.992396519438,0.0,0.0,-0.601964059013,0.0,0.0,0.0
623,0.0,0.0,0.105396307434,0.994430298402,0.0,0.0,-0.5361651462129999,0.0,0.0,0.0
624,0.0,0.0,0.0908932990147,0.995860636934,0.0,0.0,-0.564439480095,0.0,0.0,0.0
625,0.0,0.0,0.0720196932808,0.997403210231,0.0,0.0,-0.593411945678,0.0,0.0,0.0
626,0.0,0.0,0.056170023159699996,0.998421217973,0.0,0.0,-0.549604181453,0.0,0.0,0.0
627,0.0,0.0,0.0389982168667,0.999239280193,0.0,0.0,-0.529009296279,0.0,0.0,0.0
628,0.0,0.0,0.0234725225039,0.999724482389,0.0,0.0,-0.570548132477,0.0,0.0,0.0
629,0.0,0.0,0.004363309284750001,0.9999904807209999,0.0,0.0,-0.581369173839,0.0,0.0,0.0
630,0.0,0.0,-0.000785398082652,0.999999691575,0.0,0.0,-0.555014702134,0.0,0.0,0.0
631,0.0,0.0,-0.0157945729487,0.999875257952,0.0,0.0,-0.539655804717,0.0,0.0,0.0
632,0.0,0.0,-0.023298037309,0.99972856389,0.0,0.0,-0.5471607205,0.0,0.0,0.0
633,0.0,0.0,-0.0389982168667,0.999239280193,0.0,0.0,-0.563915881319,0.0,0.0,0.0
634,0.0,0.0,-0.0576511484991,0.9983367894040001,0.0,0.0,-0.5647885459449999,0.0,0.0,0.0
635,0.0,0.0,-0.07376037970360001,0.9972759930859999,0.0,0.0,-0.61697389058,0.0,0.0,0.0
636,0.0,0.0,-0.0910671080995,0.995844757893,0.0,0.0,-0.407708913266,0.0,0.0,0.0
637,0.0,0.0,-0.09367390851910001,0.995602932329,0.0,0.0,-0.24347343065299998,0.0,0.0,0.0
638,0.0,0.0,-0.09905924140389999,0.9950815377109999,0.0,0.0,-0.217118958948,0.0,0.0,0.0
639,0.0,0.0,-0.106697922982,0.994291483033,0.0,0.0,-0.306305283725,0.0,0.0,0.0
640,0.0,0.0,-0.109907788332,0.9939417880660001,0.0,0.0,-0.35046211380000003,0.0,0.0,0.0
641,0.0,0.0,-0.11927044898499999,0.992861803072,0.0,0.0,-0.338244809037,0.0,0.0,0.0
642,0.0,0.0,-0.127670498691,0.9918166381769999,0.0,0.0,-0.07888888219010001,0.0,0.0,0.0
643,0.0,0.0,-0.12741083733,0.991850028246,0.0,0.0,0.0610865238198,0.0,0.0,0.0
644,0.0,0.0,-0.127151167237,0.991883350334,0.0,0.0,-0.0190240888467,0.0,0.0,0.0
645,0.0,0.0,-0.127757050534,0.991805493047,0.0,0.0,-0.0659734457254,0.0,0.0,0.0
646,0.0,0.0,-0.12853597326400001,0.991704847007,0.0,0.0,0.00226892802759,0.0,0.0,0.0
647,0.0,0.0,-0.129141747261,0.9916261438230001,0.0,0.0,-0.028274333882299996,0.0,0.0,0.0
648,0.0,0.0,-0.129920528703,0.9915244103,0.0,0.0,-0.024783675378299997,0.0,0.0,0.0
649,0.0,0.0,-0.130353150461,0.9914676273909999,0.0,0.0,0.00261799387799,0.0,0.0,0.0
650,0.0,0.0,-0.130699230003,0.991422065155,0.0,0.0,-0.017278759594700002,0.0,0.0,0.0
651,0.0,0.0,-0.130872263805,0.9913992387360001,0.0,0.0,0.0010471975512,0.0,0.0,0.0
652,0.0,0.0,-0.131391341269,0.991330578283,0.0,0.0,-0.041189770347099995,0.0,0.0,0.0
653,0.0,0.0,-0.131823878312,0.9912731536299999,0.0,0.0,-0.0406661715715,0.0,0.0,0.0
654,0.0,0.0,-0.132515885343,0.9911808816419999,0.0,0.0,-0.0178023583703,0.0,0.0,0.0
655,0.0,0.0,-0.133121338527,0.9910997473659999,0.0,0.0,-0.0165806278939,0.0,0.0,0.0
656,0.0,0.0,-0.13381322418199998,0.991006569622,0.0,0.0,-0.0342084533391,0.0,0.0,0.0
657,0.0,0.0,-0.134418570642,0.9909246428799999,0.0,0.0,-0.0523598775598,0.0,0.0,0.0
658,0.0,0.0,-0.135629112858,0.990759680117,0.0,0.0,-0.0286233997327,0.0,0.0,0.0
659,0.0,0.0,-0.13588848848500001,0.9907241385459999,0.0,0.0,0.00314159265359,0.0,0.0,0.0
660,0.0,0.0,-0.135974944959,0.990712276266,0.0,0.0,-0.009250245035569999,0.0,0.0,0.0
661,0.0,0.0,-0.13675300654300002,0.990605176244,0.0,0.0,-0.0345575191895,0.0,0.0,0.0
662,0.0,0.0,-0.137530983771,0.990497465167,0.0,0.0,-0.00820304748437,0.0,0.0,0.0
663,0.0,0.0,-0.137617420457,0.990485459553,0.0,0.0,-0.00593411945678,0.0,0.0,0.0
664,0.0,0.0,-0.138308876163,0.9903891431020001,0.0,0.0,-0.0389208423195,0.0,0.0,0.0
665,0.0,0.0,-0.139432347762,0.990231599373,0.0,0.0,-0.0321140582367,0.0,0.0,0.0
666,0.0,0.0,-0.13969158500700002,0.990195062136,0.0,0.0,-0.0268780704807,0.0,0.0,0.0
667,0.0,0.0,-0.140296434649,0.990109544659,0.0,0.0,-0.010471975512,0.0,0.0,0.0
668,0.0,0.0,-0.140728438067,0.990048234542,0.0,0.0,-0.022863813201099998,0.0,0.0,0.0
669,0.0,0.0,-0.140728438067,0.990048234542,0.0,0.0,-0.0005235987755980001,0.0,0.0,0.0
670,0.0,0.0,-0.141419587774,0.989949746297,0.0,0.0,-0.0483456202802,0.0,0.0,0.0
671,0.0,0.0,-0.142628933706,0.989776230908,0.0,0.0,0.00157079632679,0.0,0.0,0.0
672,0.0,0.0,-0.142542558892,0.9897886738609999,0.0,0.0,-0.013962634016,0.0,0.0,0.0
673,0.0,0.0,-0.14349262199100002,0.9896513868200001,0.0,0.0,-0.0366519142919,0.0,0.0,0.0
674,0.0,0.0,-0.144874295681,0.9894500687000001,0.0,0.0,-0.027925268031900003,0.0,0.0,0.0
675,0.0,0.0,-0.14470160186,0.9894753389650001,0.0,0.0,-0.010646508437200001,0.0,0.0,0.0
676,0.0,0.0,-0.144874295681,0.9894500687000001,0.0,0.0,-0.0237364778271,0.0,0.0,0.0
677,0.0,0.0,-0.146083028562,0.989272332963,0.0,0.0,-0.049567350756599994,0.0,0.0,0.0
678,0.0,0.0,-0.14651466612800002,0.989208498048,0.0,0.0,-0.0010471975512,0.0,0.0,0.0
679,0.0,0.0,-0.146946275799,0.9891444748010001,0.0,0.0,-0.0328121899375,0.0,0.0,0.0
680,0.0,0.0,-0.14755048232,0.989054525882,0.0,0.0,-0.0415388361975,0.0,0.0,0.0
681,0.0,0.0,-0.14824093662499999,0.9889512751940001,0.0,0.0,-0.0287979326579,0.0,0.0,0.0
682,0.0,0.0,-0.14849983838,0.9889124319179999,0.0,0.0,-0.00366519142919,0.0,0.0,0.0
683,0.0,0.0,-0.14875872995699999,0.988873520862,0.0,0.0,-0.0375245789179,0.0,0.0,0.0
684,0.0,0.0,-0.15057068452400002,0.988599245884,0.0,0.0,-0.061261056745,0.0,0.0,0.0
685,0.0,0.0,-0.150829494038,0.988559792693,0.0,0.0,-0.0242600766027,0.0,0.0,0.0
686,0.0,0.0,-0.15177837367799998,0.988414551331,0.0,0.0,-0.0254818070791,0.0,0.0,0.0
687,0.0,0.0,-0.15177837367799998,0.988414551331,0.0,0.0,0.00226892802759,0.0,0.0,0.0
688,0.0,0.0,-0.152554625759,0.988295040036,0.0,0.0,-0.0387463093943,0.0,0.0,0.0
689,0.0,0.0,-0.152985836284,0.9882283814470001,0.0,0.0,-0.0275762021815,0.0,0.0,0.0
690,0.0,0.0,-0.15333078373700001,0.98817491911,0.0,0.0,-0.0342084533391,0.0,0.0,0.0
691,0.0,0.0,-0.153417017683,0.9881615347130001,0.0,0.0,0.00488692190558,0.0,0.0,0.0
692,0.0,0.0,-0.153589482068,0.9881347433409999,0.0,0.0,-0.0287979326579,0.0,0.0,0.0
693,0.0,0.0,-0.154279292772,0.9880272768610001,0.0,0.0,-0.024783675378299997,0.0,0.0,0.0
694,0.0,0.0,-0.15522765964500002,0.987878724177,0.0,0.0,-0.0301941960595,0.0,0.0,0.0
695,0.0,0.0,-0.155917291214,0.987770114096,0.0,0.0,-0.0136135681656,0.0,0.0,0.0
696,0.0,0.0,-0.156693035879,0.9876473523010001,0.0,0.0,-0.033684854563500004,0.0,0.0,0.0
697,0.0,0.0,-0.157296326041,0.9875514497050001,0.0,0.0,-0.0193731546971,0.0,0.0,0.0
698,0.0,0.0,-0.15772721166200002,0.987482722229,0.0,0.0,-0.0185004900711,0.0,0.0,0.0
699,0.0,0.0,-0.158244234762,0.9874000010959999,0.0,0.0,-0.0193731546971,0.0,0.0,0.0
700,0.0,0.0,-0.158502730052,0.987358539015,0.0,0.0,-0.0101229096616,0.0,0.0,0.0
701,0.0,0.0,-0.15884737353700001,0.9873031509729999,0.0,0.0,-0.0158824961931,0.0,0.0,0.0
702,0.0,0.0,-0.159708897478,0.987164154569,0.0,0.0,-0.027925268031900003,0.0,0.0,0.0
703,0.0,0.0,-0.160398029092,0.987052416168,0.0,0.0,-0.010471975512,0.0,0.0,0.0
704,0.0,0.0,-0.160484165054,0.987038415041,0.0,0.0,-0.007679448708779999,0.0,0.0,0.0
705,0.0,0.0,-0.160742565604,0.98699636656,0.0,0.0,-0.0134390352404,0.0,0.0,0.0
706,0.0,0.0,-0.161948288881,0.98679924591,0.0,0.0,-0.03525565089030001,0.0,0.0,0.0
707,0.0,0.0,-0.162120515372,0.986770965572,0.0,0.0,-0.022165681500300002,0.0,0.0,0.0
708,0.0,0.0,-0.16263716519500002,0.986685944208,0.0,0.0,-0.010646508437200001,0.0,0.0,0.0
709,0.0,0.0,-0.16289547339500002,0.986643332085,0.0,0.0,-0.0267035375555,0.0,0.0,0.0
710,0.0,0.0,-0.163239866957,0.986586410729,0.0,0.0,-0.04258603374869999,0.0,0.0,0.0
711,0.0,0.0,-0.164531165327,0.98637188506,0.0,0.0,-0.0291469985083,0.0,0.0,0.0
712,0.0,0.0,-0.16470331719,0.9863431539309999,0.0,0.0,-0.0010471975512,0.0,0.0,0.0
713,0.0,0.0,-0.16470331719,0.9863431539309999,0.0,0.0,0.004363323129989999,0.0,0.0,0.0
714,0.0,0.0,-0.165477938413,0.9862134920479999,0.0,0.0,-0.042236967898300004,0.0,0.0,0.0
715,0.0,0.0,-0.165908239462,0.986141194799,0.0,0.0,-0.037873644768300005,0.0,0.0,0.0
716,0.0,0.0,-0.166424559018,0.986054190273,0.0,0.0,0.000698131700798,0.0,0.0,0.0
717,0.0,0.0,-0.166510607845,0.9860396632359999,0.0,0.0,-0.0183259571459,0.0,0.0,0.0
718,0.0,0.0,-0.168145293887,0.9857622229240001,0.0,0.0,-0.0703367688554,0.0,0.0,0.0
719,0.0,0.0,-0.16874743035300002,0.985659324893,0.0,0.0,0.0050614548307799994,0.0,0.0,0.0
720,0.0,0.0,-0.16874743035300002,0.985659324893,0.0,0.0,-0.00750491578358,0.0,0.0,0.0
721,0.0,0.0,-0.16909148007599997,0.98560036088,0.0,0.0,-0.0392699081699,0.0,0.0,0.0
722,0.0,0.0,-0.170209499166,0.9854078984829999,0.0,0.0,-0.0232128790515,0.0,0.0,0.0
723,0.0,0.0,-0.17072543417999997,0.985318641925,0.0,0.0,0.00226892802759,0.0,0.0,0.0
724,0.0,0.0,-0.171241322388,0.985229115235,0.0,0.0,-0.041015237421900004,0.0,0.0,0.0
725,0.0,0.0,-0.171843132619,0.985124326048,0.0,0.0,-0.008901179185170001,0.0,0.0,0.0
726,0.0,0.0,-0.171843132619,0.985124326048,0.0,0.0,0.000349065850399,0.0,0.0,0.0
727,0.0,0.0,-0.172444878725,0.9850191692560001,0.0,0.0,-0.0466002910282,0.0,0.0,0.0
728,0.0,0.0,-0.17450751832699998,0.9846558414219999,0.0,0.0,-0.08011061266649999,0.0,0.0,0.0
729,0.0,0.0,-0.17536672609200002,0.984503179974,0.0,0.0,-0.0012217304764,0.0,0.0,0.0
730,0.0,0.0,-0.175280811314,0.98451847986,0.0,0.0,-0.0539306738866,0.0,0.0,0.0
731,0.0,0.0,-0.175796279934,0.98442656809,0.0,0.0,-0.05201081170940001,0.0,0.0,0.0
732,0.0,0.0,-0.17691296308499999,0.984226500097,0.0,0.0,-0.0370009801423,0.0,0.0,0.0
733,0.0,0.0,-0.17665528713,0.9842727820730001,0.0,0.0,0.0101229096616,0.0,0.0,0.0
734,0.0,0.0,-0.176569392453,0.984288194407,0.0,0.0,0.0038397243543899996,0.0,0.0,0.0
735,0.0,0.0,-0.17742827860100002,0.9841337337739999,0.0,0.0,-0.0427605666739,0.0,0.0,0.0
736,0.0,0.0,-0.17794354547400001,0.9840406976459999,0.0,0.0,-0.0275762021815,0.0,0.0,0.0
737,0.0,0.0,-0.178115290264,0.984009625651,0.0,0.0,0.006981317007979999,0.0,0.0,0.0
738,0.0,0.0,-0.17794354547400001,0.9840406976459999,0.0,0.0,0.0190240888467,0.0,0.0,0.0
739,0.0,0.0,-0.178458763563,0.983947391738,0.0,0.0,-0.03473205211469999,0.0,0.0,0.0
740,0.0,0.0,-0.17863049206,0.983916229822,0.0,0.0,-0.0164060949687,0.0,0.0,0.0
741,0.0,0.0,-0.179059789487,0.9838381939059999,0.0,0.0,-0.0359537825911,0.0,0.0,0.0
742,0.0,0.0,-0.179489052822,0.983759970682,0.0,0.0,0.00453785605519,0.0,0.0,0.0
743,0.0,0.0,-0.180004123711,0.9836658555869999,0.0,0.0,-0.013788101090799998,0.0,0.0,0.0
744,0.0,0.0,-0.18043331176,0.983587220335,0.0,0.0,-0.0268780704807,0.0,0.0,0.0
745,0.0,0.0,-0.181119941153,0.983461014437,0.0,0.0,-0.009075712110370001,0.0,0.0,0.0
746,0.0,0.0,-0.181463222767,0.983397731736,0.0,0.0,-0.0195476876223,0.0,0.0,0.0
747,0.0,0.0,-0.182321329976,0.98323900077,0.0,0.0,-0.0232128790515,0.0,0.0,0.0
748,0.0,0.0,-0.18309350776900002,0.983095502692,0.0,0.0,-0.009250245035569999,0.0,0.0,0.0
749,0.0,0.0,-0.183436661675,0.983031531108,0.0,0.0,-0.0253072741539,0.0,0.0,0.0
750,0.0,0.0,-0.183865572622,0.9829513981899999,0.0,0.0,-0.022863813201099998,0.0,0.0,0.0
751,0.0,0.0,-0.184637524056,0.9828066873549999,0.0,0.0,-0.00610865238198,0.0,0.0,0.0
752,0.0,0.0,-0.18489481591499998,0.9827583156849999,0.0,0.0,-0.00523598775598,0.0,0.0,0.0
753,0.0,0.0,-0.18532360751,0.9826775465530001,0.0,0.0,-0.027227136331099997,0.0,0.0,0.0
754,0.0,0.0,-0.185409361597,0.9826613702760001,0.0,0.0,-0.011868238913600001,0.0,0.0,0.0
755,0.0,0.0,-0.18558086553599998,0.982628995271,0.0,0.0,-0.00593411945678,0.0,0.0,0.0
756,0.0,0.0,-0.186181084768,0.982515447041,0.0,0.0,-0.0181514242207,0.0,0.0,0.0
757,0.0,0.0,-0.186181084768,0.982515447041,0.0,0.0,0.00715584993318,0.0,0.0,0.0
758,0.0,0.0,-0.185838110843,0.9825803766399999,0.0,0.0,0.00942477796077,0.0,0.0,0.0
759,0.0,0.0,-0.186609770269,0.982434116692,0.0,0.0,-0.044505895925900006,0.0,0.0,0.0
760,0.0,0.0,-0.187038420242,0.9823525993009999,0.0,0.0,-0.047996554429800005,0.0,0.0,0.0
761,0.0,0.0,-0.187981324723,0.982172602731,0.0,0.0,-0.0033161255787899995,0.0,0.0,0.0
762,0.0,0.0,-0.18789561327799997,0.9821890034559999,0.0,0.0,-0.0050614548307799994,0.0,0.0,0.0
763,0.0,0.0,-0.187981324723,0.982172602731,0.0,0.0,-0.0198967534727,0.0,0.0,0.0
764,0.0,0.0,-0.188752663223,0.982024659632,0.0,0.0,-0.0219911485751,0.0,0.0,0.0
765,0.0,0.0,-0.188924055984,0.9819917011210001,0.0,0.0,-0.013089969390000001,0.0,0.0,0.0
766,0.0,0.0,-0.18926682423500002,0.98192569436,0.0,0.0,-0.00314159265359,0.0,0.0,0.0
767,0.0,0.0,-0.189780933359,0.981826459887,0.0,0.0,-0.021816615649900003,0.0,0.0,0.0
768,0.0,0.0,-0.189866613158,0.981809894637,0.0,0.0,-0.009250245035569999,0.0,0.0,0.0
769,0.0,0.0,-0.190294990453,0.98172695624,0.0,0.0,-0.0127409035396,0.0,0.0,0.0
770,0.0,0.0,-0.190466331231,0.981693728546,0.0,0.0,-0.0179768912955,0.0,0.0,0.0
771,0.0,0.0,-0.190980318733,0.981593866045,0.0,0.0,-0.022340214425499997,0.0,0.0,0.0
772,0.0,0.0,-0.19175120177000002,0.9814435677200002,0.0,0.0,-0.0144862327916,0.0,0.0,0.0
773,0.0,0.0,-0.191922493066,0.981410085874,0.0,0.0,-0.00820304748437,0.0,0.0,0.0
774,0.0,0.0,-0.192950117883,0.9812085670280001,0.0,0.0,-0.022340214425499997,0.0,0.0,0.0
775,0.0,0.0,-0.19329261252399998,0.981141154954,0.0,0.0,-0.013089969390000001,0.0,0.0,0.0
776,0.0,0.0,-0.19346385101500002,0.981107404085,0.0,0.0,0.000174532925199,0.0,0.0,0.0
777,0.0,0.0,-0.193891921448,0.9810228961640001,0.0,0.0,-0.0127409035396,0.0,0.0,0.0
778,0.0,0.0,-0.19457675732500002,0.980887295008,0.0,0.0,-0.0212930168743,0.0,0.0,0.0
779,0.0,0.0,-0.194662355149,0.980870311248,0.0,0.0,0.0150098315672,0.0,0.0,0.0
780,0.0,0.0,-0.19526149836800002,0.980751215781,0.0,0.0,-0.0418879020479,0.0,0.0,0.0
781,0.0,0.0,-0.19611729080200002,0.980580444557,0.0,0.0,-0.028274333882299996,0.0,0.0,0.0
782,0.0,0.0,-0.196202861842,0.980563326361,0.0,0.0,-0.00366519142919,0.0,0.0,0.0
783,0.0,0.0,-0.19628843138799998,0.980546200698,0.0,0.0,-0.000349065850399,0.0,0.0,0.0
784,0.0,0.0,-0.197058489953,0.980391733715,0.0,0.0,-0.037873644768300005,0.0,0.0,0.0
785,0.0,0.0,-0.197315149153,0.980340110326,0.0,0.0,-0.0230383461263,0.0,0.0,0.0
786,0.0,0.0,-0.197571794829,0.980288419746,0.0,0.0,-0.010646508437200001,0.0,0.0,0.0
787,0.0,0.0,-0.197657340379,0.980271174622,0.0,0.0,0.0198967534727,0.0,0.0,0.0
788,0.0,0.0,-0.197571794829,0.980288419746,0.0,0.0,0.0010471975512,0.0,0.0,0.0
789,0.0,0.0,-0.198854819736,0.9800289590960001,0.0,0.0,-0.061784655520599994,0.0,0.0,0.0
790,0.0,0.0,-0.199282419096,0.979942099024,0.0,0.0,-0.035081117965099995,0.0,0.0,0.0
791,0.0,0.0,-0.19953896050500003,0.9798898934270001,0.0,0.0,-0.00314159265359,0.0,0.0,0.0
792,0.0,0.0,-0.19962447127,0.979872476637,0.0,0.0,-0.004363323129989999,0.0,0.0,0.0
793,0.0,0.0,-0.199795488238,0.97983762067,0.0,0.0,-0.0181514242207,0.0,0.0,0.0
794,0.0,0.0,-0.200137503911,0.979767819194,0.0,0.0,-0.0404916386463,0.0,0.0,0.0
795,0.0,0.0,-0.20090694995,0.9796103293970001,0.0,0.0,-0.006981317007979999,0.0,0.0,0.0
796,0.0,0.0,-0.20124888621599998,0.979540139962,0.0,0.0,-0.00226892802759,0.0,0.0,0.0
797,0.0,0.0,-0.201334366453,0.979522573954,0.0,0.0,-0.0178023583703,0.0,0.0,0.0
798,0.0,0.0,-0.202018153094,0.979381777358,0.0,0.0,-0.0181514242207,0.0,0.0,0.0
799,0.0,0.0,-0.20218908438299998,0.979346503622,0.0,0.0,-0.0214675497995,0.0,0.0,0.0
800,0.0,0.0,-0.20244546976599997,0.979293537082,0.0,0.0,-0.00855211333477,0.0,0.0,0.0
801,0.0,0.0,-0.20295819888900002,0.979187402648,0.0,0.0,-0.023387411976700002,0.0,0.0,0.0
802,0.0,0.0,-0.2032999874,0.979116497217,0.0,0.0,-0.00837758040957,0.0,0.0,0.0
803,0.0,0.0,-0.20347087236900002,0.979080999763,0.0,0.0,-0.00523598775598,0.0,0.0,0.0
804,0.0,0.0,-0.204068920917,0.978956523813,0.0,0.0,-0.0317649923863,0.0,0.0,0.0
805,0.0,0.0,-0.204752311714,0.978813818276,0.0,0.0,-0.0287979326579,0.0,0.0,0.0
806,0.0,0.0,-0.205093969711,0.9787422866050001,0.0,0.0,0.00279252680319,0.0,0.0,0.0
807,0.0,0.0,-0.204923143834,0.978778067348,0.0,0.0,0.00942477796077,0.0,0.0,0.0
808,0.0,0.0,-0.205691811048,0.978616819224,0.0,0.0,-0.026005405854700004,0.0,0.0,0.0
809,0.0,0.0,-0.206631120843,0.978418918408,0.0,0.0,-0.0389208423195,0.0,0.0,0.0
810,0.0,0.0,-0.206801884011,0.978382839572,0.0,0.0,-0.000698131700798,0.0,0.0,0.0
811,0.0,0.0,-0.20731413569600002,0.9782744242489999,0.0,0.0,-0.0207694180987,0.0,0.0,0.0
812,0.0,0.0,-0.207655605253,0.9782019983660001,0.0,0.0,-0.00994837673637,0.0,0.0,0.0
813,0.0,0.0,-0.208253116068,0.9780749662720001,0.0,0.0,-0.0237364778271,0.0,0.0,0.0
814,0.0,0.0,-0.20842381917999997,0.97803860435,0.0,0.0,-0.0185004900711,0.0,0.0,0.0
815,0.0,0.0,-0.20842381917999997,0.97803860435,0.0,0.0,-0.000174532925199,0.0,0.0,0.0
816,0.0,0.0,-0.208509168356,0.978020412216,0.0,0.0,-0.017453292519900004,0.0,0.0,0.0
817,0.0,0.0,-0.20910656808800002,0.977892858744,0.0,0.0,-0.020071286397900002,0.0,0.0,0.0
818,0.0,0.0,-0.209959860863,0.977710006508,0.0,0.0,-0.006632251157579999,0.0,0.0,0.0
819,0.0,0.0,-0.209959860863,0.977710006508,0.0,0.0,0.00157079632679,0.0,0.0,0.0
820,0.0,0.0,-0.209959860863,0.977710006508,0.0,0.0,0.012217304764,0.0,0.0,0.0
821,0.0,0.0,-0.21055707070799998,0.977581566916,0.0,0.0,-0.0389208423195,0.0,0.0,0.0
822,0.0,0.0,-0.21123950002300002,0.977434332132,0.0,0.0,-0.017453292519900004,0.0,0.0,0.0
823,0.0,0.0,-0.21132479645500002,0.977415894286,0.0,0.0,-0.0012217304764,0.0,0.0,0.0
824,0.0,0.0,-0.211580676093,0.977360536089,0.0,0.0,-0.010646508437200001,0.0,0.0,0.0
825,0.0,0.0,-0.21166596608399998,0.97734206847,0.0,0.0,0.00593411945678,0.0,0.0,0.0
826,0.0,0.0,-0.21209239184700002,0.9772496187369999,0.0,0.0,-0.0102974425868,0.0,0.0,0.0
827,0.0,0.0,-0.21226295085000002,0.9772125867470001,0.0,0.0,-0.0249582083035,0.0,0.0,0.0
828,0.0,0.0,-0.21285985640900001,0.97708274037,0.0,0.0,-0.0013962634016,0.0,0.0,0.0
829,0.0,0.0,-0.21311564877500003,0.977026980307,0.0,0.0,-0.028448866807499997,0.0,0.0,0.0
830,0.0,0.0,-0.213968184403,0.976840629818,0.0,0.0,-0.00942477796077,0.0,0.0,0.0
831,0.0,0.0,-0.213968184403,0.976840629818,0.0,0.0,-0.004363323129989999,0.0,0.0,0.0
832,0.0,0.0,-0.21413867199499997,0.976803270447,0.0,0.0,-0.00488692190558,0.0,0.0,0.0
833,0.0,0.0,-0.21413867199499997,0.976803270447,0.0,0.0,-0.004014257279590001,0.0,0.0,0.0
834,0.0,0.0,-0.214735327167,0.9766722783339999,0.0,0.0,-0.0160570291183,0.0,0.0,0.0
835,0.0,0.0,-0.215502337472,0.97650332439,0.0,0.0,-0.054454272662199994,0.0,0.0,0.0
836,0.0,0.0,-0.215757978057,0.976446872546,0.0,0.0,-0.012042771838799999,0.0,0.0,0.0
837,0.0,0.0,-0.216013603853,0.976390353778,0.0,0.0,-0.0038397243543899996,0.0,0.0,0.0
838,0.0,0.0,-0.21618401282699998,0.976352637421,0.0,0.0,-0.0280998009571,0.0,0.0,0.0
839,0.0,0.0,-0.21695077164,0.97618254578,0.0,0.0,-0.0186750229963,0.0,0.0,0.0
840,0.0,0.0,-0.21712114433000002,0.976144665859,0.0,0.0,-0.0115191730632,0.0,0.0,0.0
841,0.0,0.0,-0.217291510406,0.9761067562029999,0.0,0.0,-0.00593411945678,0.0,0.0,0.0
842,0.0,0.0,-0.217291510406,0.9761067562029999,0.0,0.0,0.000349065850399,0.0,0.0,0.0
843,0.0,0.0,-0.218143241397,0.975916761939,0.0,0.0,-0.023387411976700002,0.0,0.0,0.0
844,0.0,0.0,-0.218143241397,0.975916761939,0.0,0.0,0.00872664625997,0.0,0.0,0.0
845,0.0,0.0,-0.218058075762,0.975935794812,0.0,0.0,0.009599310885969999,0.0,0.0,0.0
846,0.0,0.0,-0.217802568899,0.975992848837,0.0,0.0,0.0293215314335,0.0,0.0,0.0
847,0.0,0.0,-0.21771739662599998,0.97601185198,0.0,0.0,0.00488692190558,0.0,0.0,0.0
848,0.0,0.0,-0.21856904463500001,0.975821486096,0.0,0.0,-0.0275762021815,0.0,0.0,0.0
849,0.0,0.0,-0.220101591162,0.975476954914,0.0,0.0,-0.0443313630007,0.0,0.0,0.0
850,0.0,0.0,-0.219675938108,0.975572899489,0.0,0.0,0.026005405854700004,0.0,0.0,0.0
851,0.0,0.0,-0.21976107206700002,0.975553725432,0.0,0.0,-0.0298451302091,0.0,0.0,0.0
852,0.0,0.0,-0.220442083439,0.975400065537,0.0,0.0,-0.0125663706144,0.0,0.0,0.0
853,0.0,0.0,-0.22078254885499998,0.97532305731,0.0,0.0,0.00157079632679,0.0,0.0,0.0
854,0.0,0.0,-0.22086766100699998,0.9753037866840001,0.0,0.0,-0.0237364778271,0.0,0.0,0.0
855,0.0,0.0,-0.22188887545400002,0.975071959883,0.0,0.0,-0.0317649923863,0.0,0.0,0.0
856,0.0,0.0,-0.22222922625100003,0.9749944466509999,0.0,0.0,-0.010821041362399999,0.0,0.0,0.0
857,0.0,0.0,-0.22222922625100003,0.9749944466509999,0.0,0.0,0.00645771823238,0.0,0.0,0.0
858,0.0,0.0,-0.22469595715100002,0.974428923442,0.0,0.0,-0.23509585024399998,0.0,0.0,0.0
859,0.0,0.0,-0.233699921703,0.972308771222,0.0,0.0,-0.28029987787,0.0,0.0,0.0
860,0.0,0.0,-0.241244442494,0.970464383152,0.0,0.0,-0.23422318561799998,0.0,0.0,0.0
861,0.0,0.0,-0.247252691981,0.96895103401,0.0,0.0,-0.214326432145,0.0,0.0,0.0
862,0.0,0.0,-0.254686337914,0.9670237170200001,0.0,0.0,-0.225671072283,0.0,0.0,0.0
863,0.0,0.0,-0.256711107581,0.966488182672,0.0,0.0,-0.22741640153499998,0.0,0.0,0.0
864,0.0,0.0,-0.268835767801,0.963186030812,0.0,0.0,-0.657290996301,0.0,0.0,0.0
865,0.0,0.0,-0.287945566665,0.9576467775949999,0.0,0.0,-0.598473400509,0.0,0.0,0.0
866,0.0,0.0,-0.29312269446999994,0.9560748328380001,0.0,0.0,-0.57735491656,0.0,0.0,0.0
867,0.0,0.0,-0.306941377168,0.951728422914,0.0,0.0,-0.526391302401,0.0,0.0,0.0
868,0.0,0.0,-0.314075307775,0.949398073016,0.0,0.0,-0.533023553559,0.0,0.0,0.0
869,0.0,0.0,-0.328124833917,0.944634370202,0.0,0.0,-0.5471607205,0.0,0.0,0.0
870,0.0,0.0,-0.344642923175,0.9387338576540001,0.0,0.0,-0.529009296279,0.0,0.0,0.0
871,0.0,0.0,-0.349226308593,0.937038411905,0.0,0.0,-0.5185373207680001,0.0,0.0,0.0
872,0.0,0.0,-0.36373901304300005,0.931500901981,0.0,0.0,-0.5799729104379999,0.0,0.0,0.0
873,0.0,0.0,-0.380424828643,0.9248118455940001,0.0,0.0,-0.541401133969,0.0,0.0,0.0
874,0.0,0.0,-0.384939751276,0.922941703407,0.0,0.0,-0.53372168526,0.0,0.0,0.0
875,0.0,0.0,-0.399309194613,0.916816321352,0.0,0.0,-0.558505360638,0.0,0.0,0.0
876,0.0,0.0,-0.41501085379,0.909816460192,0.0,0.0,-0.52028265002,0.0,0.0,0.0
877,0.0,0.0,-0.42995965854400003,0.902848100194,0.0,0.0,-0.5300564938310001,0.0,0.0,0.0
878,0.0,0.0,-0.443696948396,0.896176889896,0.0,0.0,-0.576307719009,0.0,0.0,0.0
879,0.0,0.0,-0.45942484456999994,0.888216647103,0.0,0.0,-0.530754625531,0.0,0.0,0.0
880,0.0,0.0,-0.47270457413999994,0.881220962975,0.0,0.0,-0.526391302401,0.0,0.0,0.0
881,0.0,0.0,-0.488392805834,0.872623897913,0.0,0.0,-0.540179403492,0.0,0.0,0.0
882,0.0,0.0,-0.501435236546,0.8651951823430001,0.0,0.0,-0.527263967027,0.0,0.0,0.0
883,0.0,0.0,-0.517205680081,0.8558611362199999,0.0,0.0,-0.598647933434,0.0,0.0,0.0
884,0.0,0.0,-0.531176785309,0.847261012173,0.0,0.0,-0.60824724432,0.0,0.0,0.0
885,0.0,0.0,-0.546832800472,0.837241833838,0.0,0.0,-0.535467014512,0.0,0.0,0.0
886,0.0,0.0,-0.558975842781,0.829183940502,0.0,0.0,-0.500036830696,0.0,0.0,0.0
887,0.0,0.0,-0.573790870196,0.819001854259,0.0,0.0,-0.562694150843,0.0,0.0,0.0
888,0.0,0.0,-0.586301665035,0.810092808003,0.0,0.0,-0.546986187575,0.0,0.0,0.0
889,0.0,0.0,-0.601257323772,0.799055461536,0.0,0.0,-0.5883504908470001,0.0,0.0,0.0
890,0.0,0.0,-0.605432907381,0.795896346681,0.0,0.0,-0.555712833835,0.0,0.0,0.0
891,0.0,0.0,-0.617379181571,0.786665714369,0.0,0.0,-0.539481271791,0.0,0.0,0.0
892,0.0,0.0,-0.6311497495049999,0.77566100437,0.0,0.0,-0.563392282544,0.0,0.0,0.0
893,0.0,0.0,-0.635067621397,0.772456546514,0.0,0.0,-0.5344198169609999,0.0,0.0,0.0
894,0.0,0.0,-0.6464569411150001,0.762950472367,0.0,0.0,-0.5567600313859999,0.0,0.0,0.0
895,0.0,0.0,-0.652429140253,0.757849732433,0.0,0.0,-0.5693264020009999,0.0,0.0,0.0
896,0.0,0.0,-0.665100031577,0.746754275513,0.0,0.0,-0.595331807855,0.0,0.0,0.0
897,0.0,0.0,-0.669065752191,0.743203215309,0.0,0.0,-0.55990162404,0.0,0.0,0.0
898,0.0,0.0,-0.682317408383,0.731056054087,0.0,0.0,-0.537735942539,0.0,0.0,0.0
899,0.0,0.0,-0.685945362789,0.72765304869,0.0,0.0,-0.531452757232,0.0,0.0,0.0
900,0.0,0.0,-0.698727498803,0.715387924428,0.0,0.0,-0.5291838292050001,0.0,0.0,0.0
901,0.0,0.0,-0.7102468097939999,0.70395274641,0.0,0.0,-0.593062879828,0.0,0.0,0.0
902,0.0,0.0,-0.714167325906,0.699975021417,0.0,0.0,-0.603709388265,0.0,0.0,0.0
903,0.0,0.0,-0.72795227954,0.685627798965,0.0,0.0,-0.592190215202,0.0,0.0,0.0
904,0.0,0.0,-0.731591719395,0.681743027916,0.0,0.0,-0.570548132477,0.0,0.0,0.0
905,0.0,0.0,-0.741975840976,0.670426618959,0.0,0.0,-0.522726110972,0.0,0.0,0.0
906,0.0,0.0,-0.7538501546199999,0.657046379169,0.0,0.0,-0.5614724203670001,0.0,0.0,0.0
907,0.0,0.0,-0.764471531423,0.644657488628,0.0,0.0,-0.619591884458,0.0,0.0,0.0
908,0.0,0.0,-0.776321517417,0.630337133282,0.0,0.0,-0.540353936417,0.0,0.0,0.0
909,0.0,0.0,-0.785964813832,0.618271228037,0.0,0.0,-0.5569345643110001,0.0,0.0,0.0
910,0.0,0.0,-0.796002002535,0.605293988043,0.0,0.0,-0.388510291494,0.0,0.0,0.0
911,0.0,0.0,-0.799107928093,0.601187590739,0.0,0.0,-0.17715091907699998,0.0,0.0,0.0
912,0.0,0.0,-0.804064443961,0.59454215154,0.0,0.0,-0.313984732434,0.0,0.0,0.0
913,0.0,0.0,-0.8096832948430001,0.58686707358,0.0,0.0,-0.320791516517,0.0,0.0,0.0
914,0.0,0.0,-0.812083526892,0.583541211356,0.0,0.0,-0.284837733925,0.0,0.0,0.0
915,0.0,0.0,-0.81649043092,0.577358966516,0.0,0.0,-0.282568805898,0.0,0.0,0.0
916,0.0,0.0,-0.819101987183,0.573647918668,0.0,0.0,0.058643062867,0.0,0.0,0.0
917,0.0,0.0,-0.818801513568,0.574076720812,0.0,0.0,0.0418879020479,0.0,0.0,0.0
918,0.0,0.0,-0.81905192384,0.573719396617,0.0,0.0,-0.011868238913600001,0.0,0.0,0.0
919,0.0,0.0,-0.8199521093250001,0.572432125595,0.0,0.0,-0.0729547627334,0.0,0.0,0.0
920,0.0,0.0,-0.820301635205,0.571931138582,0.0,0.0,-0.0605629250442,0.0,0.0,0.0
921,0.0,0.0,-0.820750575823,0.571286698852,0.0,0.0,-0.00558505360638,0.0,0.0,0.0
922,0.0,0.0,-0.820900110203,0.571071807279,0.0,0.0,-0.0225147473507,0.0,0.0,0.0
923,0.0,0.0,-0.821049588319,0.570856876565,0.0,0.0,-0.0343829862643,0.0,0.0,0.0
924,0.0,0.0,-0.821696676415,0.569925058204,0.0,0.0,-0.0275762021815,0.0,0.0,0.0
925,0.0,0.0,-0.821845854285,0.569709918989,0.0,0.0,-0.0333357887131,0.0,0.0,0.0
926,0.0,0.0,-0.8220943588899999,0.5693512668649999,0.0,0.0,-0.00244346095279,0.0,0.0,0.0
927,0.0,0.0,-0.822491640687,0.568777198031,0.0,0.0,-0.0164060949687,0.0,0.0,0.0
928,0.0,0.0,-0.8230372485680001,0.567987400802,0.0,0.0,-0.0513126800086,0.0,0.0,0.0
929,0.0,0.0,-0.823829506054,0.566837670727,0.0,0.0,-0.00942477796077,0.0,0.0,0.0
930,0.0,0.0,-0.824076757215,0.566478153345,0.0,0.0,-0.0254818070791,0.0,0.0,0.0
931,0.0,0.0,-0.8245214139049999,0.565830750324,0.0,0.0,-0.047298422729,0.0,0.0,0.0
932,0.0,0.0,-0.825409201191,0.564534897583,0.0,0.0,-0.0310668606855,0.0,0.0,0.0
933,0.0,0.0,-0.8257539019110001,0.564030578496,0.0,0.0,-0.022863813201099998,0.0,0.0,0.0
934,0.0,0.0,-0.82585233124,0.563886448662,0.0,0.0,-0.0179768912955,0.0,0.0,0.0
935,0.0,0.0,-0.826589749127,0.562804927695,0.0,0.0,-0.05654866776459999,0.0,0.0,0.0
936,0.0,0.0,-0.8271296221529999,0.562011199316,0.0,0.0,-0.026005405854700004,0.0,0.0,0.0
937,0.0,0.0,-0.827374767055,0.561650242447,0.0,0.0,-0.013788101090799998,0.0,0.0,0.0
938,0.0,0.0,-0.827913531301,0.560855761037,0.0,0.0,-0.042411500823499995,0.0,0.0,0.0
939,0.0,0.0,-0.828109256451,0.560566730532,0.0,0.0,-0.020943951023900002,0.0,0.0,0.0
940,0.0,0.0,-0.828304880698,0.560277631725,0.0,0.0,-0.022863813201099998,0.0,0.0,0.0
941,0.0,0.0,-0.828744666206,0.559626909856,0.0,0.0,-0.0312413936107,0.0,0.0,0.0
942,0.0,0.0,-0.8289887706119999,0.559265248518,0.0,0.0,-0.0548033385126,0.0,0.0,0.0
943,0.0,0.0,-0.829768843878,0.558107217055,0.0,0.0,-0.0338593874887,0.0,0.0,0.0
944,0.0,0.0,-0.830158273978,0.5575277931600001,0.0,0.0,0.0,0.0,0.0,0.0
945,0.0,0.0,-0.830206924295,0.557455346062,0.0,0.0,-0.0158824961931,0.0,0.0,0.0
946,0.0,0.0,-0.830838802947,0.5565131476590001,0.0,0.0,-0.042236967898300004,0.0,0.0,0.0
947,0.0,0.0,-0.831033012061,0.556223096307,0.0,0.0,-0.037873644768300005,0.0,0.0,0.0
948,0.0,0.0,-0.83205094808,0.554699215611,0.0,0.0,-0.0933751149817,0.0,0.0,0.0
949,0.0,0.0,-0.832486351155,0.554045553309,0.0,0.0,-0.08307767239489999,0.0,0.0,0.0
950,0.0,0.0,-0.833162624029,0.553028066124,0.0,0.0,0.00174532925199,0.0,0.0,0.0
951,0.0,0.0,-0.833066089733,0.553173472011,0.0,0.0,0.0157079632679,0.0,0.0,0.0
952,0.0,0.0,-0.833259132945,0.552882643392,0.0,0.0,-0.017278759594700002,0.0,0.0,0.0
953,0.0,0.0,-0.833885822067,0.551936985312,0.0,0.0,-0.046774823953400005,0.0,0.0,0.0
954,0.0,0.0,-0.8341265706209999,0.5515730814540001,0.0,0.0,-0.00680678408278,0.0,0.0,0.0
955,0.0,0.0,-0.8343671603689999,0.551209072583,0.0,0.0,-0.0275762021815,0.0,0.0,0.0
956,0.0,0.0,-0.8346556583779999,0.550772123421,0.0,0.0,0.005759586531579999,0.0,0.0,0.0
957,0.0,0.0,-0.834607591265,0.550844958771,0.0,0.0,-0.00226892802759,0.0,0.0,0.0
958,0.0,0.0,-0.8352799522930001,0.549824882392,0.0,0.0,-0.045378560551899996,0.0,0.0,0.0
959,0.0,0.0,-0.83571152608,0.549168685539,0.0,0.0,-0.0310668606855,0.0,0.0,0.0
960,0.0,0.0,-0.835998955561,0.5487310327480001,0.0,0.0,-0.017453292519900004,0.0,0.0,0.0
961,0.0,0.0,-0.836525314285,0.5479282786649999,0.0,0.0,-0.035604716740699996,0.0,0.0,0.0
962,0.0,0.0,-0.836859868525,0.5474171722300001,0.0,0.0,-0.0134390352404,0.0,0.0,0.0
963,0.0,0.0,-0.837098644655,0.547051971129,0.0,0.0,-0.0291469985083,0.0,0.0,0.0
964,0.0,0.0,-0.8380521550040001,0.5455901259120001,0.0,0.0,-0.0376991118431,0.0,0.0,0.0
965,0.0,0.0,-0.83862303603,0.5447122207549999,0.0,0.0,-0.039793506945500004,0.0,0.0,0.0
966,0.0,0.0,-0.8390505933110001,0.544053399827,0.0,0.0,-0.00750491578358,0.0,0.0,0.0
967,0.0,0.0,-0.839145535763,0.543906949587,0.0,0.0,-0.0244346095279,0.0,0.0,0.0
968,0.0,0.0,-0.839762038498,0.5429546193720001,0.0,0.0,-0.03525565089030001,0.0,0.0,0.0
969,0.0,0.0,-0.840093553899,0.542441536663,0.0,0.0,-0.0101229096616,0.0,0.0,0.0
970,0.0,0.0,-0.840093553899,0.542441536663,0.0,0.0,0.000174532925199,0.0,0.0,0.0
971,0.0,0.0,-0.840330158691,0.542074925075,0.0,0.0,-0.015358897417600001,0.0,0.0,0.0
972,0.0,0.0,-0.840377460452,0.54200159037,0.0,0.0,-0.00680678408278,0.0,0.0,0.0
973,0.0,0.0,-0.8405193273360001,0.541781561494,0.0,0.0,-0.0160570291183,0.0,0.0,0.0
974,0.0,0.0,-0.840897357359,0.541194636325,0.0,0.0,-0.036302848441499995,0.0,0.0,0.0
975,0.0,0.0,-0.8411334180110001,0.54082767413,0.0,0.0,-0.0513126800086,0.0,0.0,0.0
976,0.0,0.0,-0.841227797435,0.540680860418,0.0,0.0,0.046076692252699995,0.0,0.0,0.0
977,0.0,0.0,-0.8408501260150001,0.541268016402,0.0,0.0,0.005410520681180001,0.0,0.0,0.0
978,0.0,0.0,-0.840897357359,0.541194636325,0.0,0.0,-0.0157079632679,0.0,0.0,0.0
979,0.0,0.0,-0.8416521876909999,0.540019994959,0.0,0.0,-0.0469493568786,0.0,0.0,0.0
980,0.0,0.0,-0.8418877357369999,0.539652703519,0.0,0.0,0.00366519142919,0.0,0.0,0.0
981,0.0,0.0,-0.842076058773,0.539358796389,0.0,0.0,-0.032637657012299995,0.0,0.0,0.0
982,0.0,0.0,-0.842687399907,0.538403144528,0.0,0.0,-0.035081117965099995,0.0,0.0,0.0
983,0.0,0.0,-0.842969191608,0.537961840655,0.0,0.0,-0.00645771823238,0.0,0.0,0.0
984,0.0,0.0,-0.843438330838,0.537226006513,0.0,0.0,-0.0280998009571,0.0,0.0,0.0
985,0.0,0.0,-0.843860006976,0.5365634059709999,0.0,0.0,-0.0249582083035,0.0,0.0,0.0
986,0.0,0.0,-0.844234393225,0.53597414984,0.0,0.0,-0.0225147473507,0.0,0.0,0.0
987,0.0,0.0,-0.844888578952,0.534942323205,0.0,0.0,-0.0486946861306,0.0,0.0,0.0
988,0.0,0.0,-0.84502859757,0.534721113562,0.0,0.0,-0.0244346095279,0.0,0.0,0.0
989,0.0,0.0,-0.8451685582699999,0.534499867271,0.0,0.0,-0.013962634016,0.0,0.0,0.0
990,0.0,0.0,-0.845494907948,0.5339834834839999,0.0,0.0,-0.010821041362399999,0.0,0.0,0.0
991,0.0,0.0,-0.845867492673,0.533393086605,0.0,0.0,-0.0370009801423,0.0,0.0,0.0
992,0.0,0.0,-0.845960574445,0.533245446754,0.0,0.0,-0.00733038285838,0.0,0.0,0.0
993,0.0,0.0,-0.846193166128,0.5328762760710001,0.0,0.0,-0.0300196631343,0.0,0.0,0.0
994,0.0,0.0,-0.846425596707,0.5325070039350001,0.0,0.0,-0.0169296937443,0.0,0.0,0.0
995,0.0,0.0,-0.846611425146,0.532211513228,0.0,0.0,-0.0488692190558,0.0,0.0,0.0
996,0.0,0.0,-0.847075544882,0.531472502828,0.0,0.0,-0.023387411976700002,0.0,0.0,0.0
997,0.0,0.0,-0.847400044893,0.530954954695,0.0,0.0,0.0169296937443,0.0,0.0,0.0
998,0.0,0.0,-0.847353707106,0.5310289022770001,0.0,0.0,0.00523598775598,0.0,0.0,0.0
999,0.0,0.0,-0.8476316370229999,0.5305851561420001,0.0,0.0,-0.0176278254451,0.0,0.0,0.0
1000,0.0,0.0,-0.847770514843,0.530363228518,0.0,0.0,-0.0204203522483,0.0,0.0,0.0
1001,0.0,0.0,-0.8479093345569999,0.530141264543,0.0,0.0,-0.012391837689200002,0.0,0.0,0.0
1002,0.0,0.0,-0.848001848748,0.529993268373,0.0,0.0,-0.0185004900711,0.0,0.0,0.0
1003,0.0,0.0,-0.848510214982,0.5291790009740001,0.0,0.0,-0.0127409035396,0.0,0.0,0.0
1004,0.0,0.0,-0.848510214982,0.5291790009740001,0.0,0.0,-0.00244346095279,0.0,0.0,0.0
1005,0.0,0.0,-0.84855639133,0.529104952474,0.0,0.0,-0.004363323129989999,0.0,0.0,0.0
1006,0.0,0.0,-0.848971687629,0.528438334722,0.0,0.0,-0.03525565089030001,0.0,0.0,0.0
1007,0.0,0.0,-0.8491560956800001,0.5281419555100001,0.0,0.0,-0.04136430327230001,0.0,0.0,0.0
1008,0.0,0.0,-0.849524601357,0.5275490040640001,0.0,0.0,-0.0038397243543899996,0.0,0.0,0.0
1009,0.0,0.0,-0.8496626842489999,0.527326580967,0.0,0.0,-0.0232128790515,0.0,0.0,0.0
1010,0.0,0.0,-0.8502144333730001,0.5264365273080001,0.0,0.0,-0.0237364778271,0.0,0.0,0.0
1011,0.0,0.0,-0.8503063009299999,0.526288128879,0.0,0.0,-0.025830872929500003,0.0,0.0,0.0
1012,0.0,0.0,-0.8506276333849999,0.525768608156,0.0,0.0,-0.0249582083035,0.0,0.0,0.0
1013,0.0,0.0,-0.850994481795,0.5251746299610001,0.0,0.0,-0.010646508437200001,0.0,0.0,0.0
1014,0.0,0.0,-0.851269345923,0.524728978323,0.0,0.0,-0.0267035375555,0.0,0.0,0.0
1015,0.0,0.0,-0.8517726572959999,0.523911576778,0.0,0.0,-0.0181514242207,0.0,0.0,0.0
1016,0.0,0.0,-0.851909787835,0.523688565266,0.0,0.0,-0.007853981633970001,0.0,0.0,0.0
1017,0.0,0.0,-0.8520925377240001,0.523391160753,0.0,0.0,-0.0136135681656,0.0,0.0,0.0
1018,0.0,0.0,-0.8523208290800001,0.5230193154339999,0.0,0.0,-0.029670597283900004,0.0,0.0,0.0
1019,0.0,0.0,-0.852776924937,0.5222753261399999,0.0,0.0,-0.021816615649900003,0.0,0.0,0.0
1020,0.0,0.0,-0.8529591814599999,0.521977619024,0.0,0.0,0.00593411945678,0.0,0.0,0.0
1021,0.0,0.0,-0.853004729353,0.521903182306,0.0,0.0,-0.0115191730632,0.0,0.0,0.0
1022,0.0,0.0,-0.853323382693,0.5213820140259999,0.0,0.0,-0.0116937059884,0.0,0.0,0.0
1023,0.0,0.0,-0.853596260693,0.520935143498,0.0,0.0,-0.036128315516300004,0.0,0.0,0.0
1024,0.0,0.0,-0.853732611941,0.52071165467,0.0,0.0,-0.0293215314335,0.0,0.0,0.0
1025,0.0,0.0,-0.853868904674,0.520488130153,0.0,0.0,-0.00837758040957,0.0,0.0,0.0
1026,0.0,0.0,-0.854232065826,0.519891890411,0.0,0.0,-0.041189770347099995,0.0,0.0,0.0
1027,0.0,0.0,-0.8545041634739999,0.519444544302,0.0,0.0,-0.061784655520599994,0.0,0.0,0.0
1028,0.0,0.0,-0.855002400666,0.51862403999,0.0,0.0,-0.0176278254451,0.0,0.0,0.0
1029,0.0,0.0,-0.855319050519,0.5181016520139999,0.0,0.0,-0.0134390352404,0.0,0.0,0.0
1030,0.0,0.0,-0.855319050519,0.5181016520139999,0.0,0.0,-0.00157079632679,0.0,0.0,0.0
1031,0.0,0.0,-0.855545033584,0.517728399366,0.0,0.0,-0.0176278254451,0.0,0.0,0.0
1032,0.0,0.0,-0.855951392604,0.517056296257,0.0,0.0,-0.022340214425499997,0.0,0.0,0.0
1033,0.0,0.0,-0.856041622915,0.516906896682,0.0,0.0,-0.0160570291183,0.0,0.0,0.0
1034,0.0,0.0,-0.856312157376,0.5164586035000001,0.0,0.0,-0.0169296937443,0.0,0.0,0.0
1035,0.0,0.0,-0.8563572236310001,0.5163838742010001,0.0,0.0,-0.000349065850399,0.0,0.0,0.0
1036,0.0,0.0,-0.856492383265,0.516159662711,0.0,0.0,-0.0151843644924,0.0,0.0,0.0
1037,0.0,0.0,-0.85689750991,0.515486816038,0.0,0.0,-0.041015237421900004,0.0,0.0,0.0
1038,0.0,0.0,-0.8570773965449999,0.515187670981,0.0,0.0,-0.024609142453099996,0.0,0.0,0.0
1039,0.0,0.0,-0.857436856497,0.514589192581,0.0,0.0,-0.0207694180987,0.0,0.0,0.0
1040,0.0,0.0,-0.857436856497,0.514589192581,0.0,0.0,0.017278759594700002,0.0,0.0,0.0
1041,0.0,0.0,-0.8575715462469999,0.514364698505,0.0,0.0,-0.0191986217719,0.0,0.0,0.0
1042,0.0,0.0,-0.857975262798,0.513691004814,0.0,0.0,-0.006981317007979999,0.0,0.0,0.0
1043,0.0,0.0,-0.857975262798,0.513691004814,0.0,0.0,-0.00994837673637,0.0,0.0,0.0
1044,0.0,0.0,-0.858244113158,0.5132416996220001,0.0,0.0,-0.0158824961931,0.0,0.0,0.0
1045,0.0,0.0,-0.858512728225,0.512792253721,0.0,0.0,-0.0010471975512,0.0,0.0,0.0
1046,0.0,0.0,-0.8587811079250001,0.512342667236,0.0,0.0,-0.0183259571459,0.0,0.0,0.0
1047,0.0,0.0,-0.858870515509,0.512192773854,0.0,0.0,-0.0160570291183,0.0,0.0,0.0
1048,0.0,0.0,-0.859183236004,0.511668024181,0.0,0.0,-0.0207694180987,0.0,0.0,0.0
1049,0.0,0.0,-0.85936178949,0.5113680814880001,0.0,0.0,-0.014137166941200001,0.0,0.0,0.0
1050,0.0,0.0,-0.859718582308,0.510768009211,0.0,0.0,-0.0280998009571,0.0,0.0,0.0
1051,0.0,0.0,-0.859807715048,0.510617952234,0.0,0.0,-0.00855211333477,0.0,0.0,0.0
1052,0.0,0.0,-0.860030432306,0.510242741749,0.0,0.0,-0.022340214425499997,0.0,0.0,0.0
1053,0.0,0.0,-0.8603419613779999,0.509717283887,0.0,0.0,-0.0204203522483,0.0,0.0,0.0
1054,0.0,0.0,-0.860430910722,0.509567118125,0.0,0.0,-0.0160570291183,0.0,0.0,0.0
1055,0.0,0.0,-0.8606087307770001,0.509266740039,0.0,0.0,-0.000174532925199,0.0,0.0,0.0
1056,0.0,0.0,-0.860564285593,0.509341840379,0.0,0.0,0.011868238913600001,0.0,0.0,0.0
1057,0.0,0.0,-0.860564285593,0.509341840379,0.0,0.0,-0.013962634016,0.0,0.0,0.0
1058,0.0,0.0,-0.8606976014830001,0.509116527724,0.0,0.0,-0.0286233997327,0.0,0.0,0.0
1059,0.0,0.0,-0.8609196635359999,0.508740929096,0.0,0.0,-0.00174532925199,0.0,0.0,0.0
1060,0.0,0.0,-0.8609640562790001,0.508665797746,0.0,0.0,-0.0165806278939,0.0,0.0,0.0
1061,0.0,0.0,-0.861363295878,0.507989441341,0.0,0.0,-0.0345575191895,0.0,0.0,0.0
1062,0.0,0.0,-0.861673448238,0.507463169699,0.0,0.0,-0.014660765716799999,0.0,0.0,0.0
1063,0.0,0.0,-0.8617620041449999,0.507312771584,0.0,0.0,-0.0127409035396,0.0,0.0,0.0
1064,0.0,0.0,-0.8617177294730001,0.507387972573,0.0,0.0,-0.0050614548307799994,0.0,0.0,0.0
1065,0.0,0.0,-0.8617620041449999,0.507312771584,0.0,0.0,-0.00820304748437,0.0,0.0,0.0
1066,0.0,0.0,-0.862071743077,0.5067862565110001,0.0,0.0,-0.0328121899375,0.0,0.0,0.0
1067,0.0,0.0,-0.8623811603210001,0.506259552328,0.0,0.0,-0.035081117965099995,0.0,0.0,0.0
1068,0.0,0.0,-0.862469506147,0.506109030711,0.0,0.0,-0.0013962634016,0.0,0.0,0.0
1069,0.0,0.0,-0.8623811603210001,0.506259552328,0.0,0.0,0.022165681500300002,0.0,0.0,0.0
1070,0.0,0.0,-0.862115965238,0.50671102463,0.0,0.0,-0.043982297150300005,0.0,0.0,0.0
1071,0.0,0.0,-0.863087191148,0.505054947977,0.0,0.0,-0.07120943348139999,0.0,0.0,0.0
1072,0.0,0.0,-0.863791539342,0.503849358996,0.0,0.0,-0.0020943951023900003,0.0,0.0,0.0
1073,0.0,0.0,-0.863659602288,0.504075481823,0.0,0.0,0.012042771838799999,0.0,0.0,0.0
1074,0.0,0.0,-0.8641430820229999,0.503246196003,0.0,0.0,-0.0687659725286,0.0,0.0,0.0
1075,0.0,0.0,-0.8646257654780001,0.5024164464590001,0.0,0.0,-0.015358897417600001,0.0,0.0,0.0
1076,0.0,0.0,-0.864581918079,0.502491897378,0.0,0.0,0.0101229096616,0.0,0.0,0.0
1077,0.0,0.0,-0.8646257654780001,0.5024164464590001,0.0,0.0,-0.027925268031900003,0.0,0.0,0.0
1078,0.0,0.0,-0.8649763075929999,0.501812701416,0.0,0.0,-0.0160570291183,0.0,0.0,0.0
1079,0.0,0.0,-0.865020095719,0.501737216083,0.0,0.0,-0.00994837673637,0.0,0.0,0.0
1080,0.0,0.0,-0.8650638772570001,0.501661726928,0.0,0.0,-0.0176278254451,0.0,0.0,0.0
1081,0.0,0.0,-0.8656761269169999,0.500604477892,0.0,0.0,-0.0387463093943,0.0,0.0,0.0
1082,0.0,0.0,-0.865719809603,0.500528931493,0.0,0.0,-0.0033161255787899995,0.0,0.0,0.0
1083,0.0,0.0,-0.865632437639,0.500680020479,0.0,0.0,0.0101229096616,0.0,0.0,0.0
1084,0.0,0.0,-0.865632437639,0.500680020479,0.0,0.0,0.00157079632679,0.0,0.0,0.0
1085,0.0,0.0,-0.8659817672560001,0.50007557307,0.0,0.0,-0.030892327760299997,0.0,0.0,0.0
1086,0.0,0.0,-0.8661126570559999,0.499848842438,0.0,0.0,-0.0280998009571,0.0,0.0,0.0
1087,0.0,0.0,-0.8661126570559999,0.499848842438,0.0,0.0,0.023561944901900004,0.0,0.0,0.0
1088,0.0,0.0,-0.866025403784,0.5,0.0,0.0,0.0129154364648,0.0,0.0,0.0
1089,0.0,0.0,-0.866156273799,0.49977325794699995,0.0,0.0,-0.0181514242207,0.0,0.0,0.0
1090,0.0,0.0,-0.866679160112,0.498865947353,0.0,0.0,-0.0197222205475,0.0,0.0,0.0
1091,0.0,0.0,-0.866679160112,0.498865947353,0.0,0.0,0.000349065850399,0.0,0.0,0.0
1092,0.0,0.0,-0.866679160112,0.498865947353,0.0,0.0,0.0129154364648,0.0,0.0,0.0
1093,0.0,0.0,-0.866679160112,0.498865947353,0.0,0.0,-0.00523598775598,0.0,0.0,0.0
1094,0.0,0.0,-0.867244547743,0.49788241022299995,0.0,0.0,-0.0431096325243,0.0,0.0,0.0
1095,0.0,0.0,-0.867461707365,0.49750395601999997,0.0,0.0,-0.005759586531579999,0.0,0.0,0.0
1096,0.0,0.0,-0.867548524973,0.497352547815,0.0,0.0,-0.006632251157579999,0.0,0.0,0.0
1097,0.0,0.0,-0.8677654533689999,0.49697396102799996,0.0,0.0,-0.021816615649900003,0.0,0.0,0.0
1098,0.0,0.0,-0.868155508124,0.49629226642499996,0.0,0.0,-0.00820304748437,0.0,0.0,0.0
1099,0.0,0.0,-0.868155508124,0.49629226642499996,0.0,0.0,-0.00820304748437,0.0,0.0,0.0
1100,0.0,0.0,-0.8685017738959999,0.495686058649,0.0,0.0,-0.0274016692563,0.0,0.0,0.0
1101,0.0,0.0,-0.868804409216,0.495155428655,0.0,0.0,0.00314159265359,0.0,0.0,0.0
1102,0.0,0.0,-0.868761195445,0.495231244257,0.0,0.0,-0.0020943951023900003,0.0,0.0,0.0
1103,0.0,0.0,-0.869020378819,0.494776294095,0.0,0.0,-0.0212930168743,0.0,0.0,0.0
1104,0.0,0.0,-0.8693224582979999,0.494245347472,0.0,0.0,-0.0171042266695,0.0,0.0,0.0
1105,0.0,0.0,-0.8693224582979999,0.494245347472,0.0,0.0,0.00471238898038,0.0,0.0,0.0
1106,0.0,0.0,-0.869408707144,0.49409361455399997,0.0,0.0,-0.0111701072128,0.0,0.0,0.0
1107,0.0,0.0,-0.869710369526,0.49356243084299994,0.0,0.0,-0.020943951023900002,0.0,0.0,0.0
1108,0.0,0.0,-0.8699256439659999,0.493182901134,0.0,0.0,-0.015533430342700001,0.0,0.0,0.0
1109,0.0,0.0,-0.8699686789799999,0.49310698392200003,0.0,0.0,-0.0019198621771900001,0.0,0.0,0.0
1110,0.0,0.0,-0.8699256439659999,0.493182901134,0.0,0.0,-0.0034906585039899997,0.0,0.0,0.0
1111,0.0,0.0,-0.870226749928,0.492651401814,0.0,0.0,-0.03525565089030001,0.0,0.0,0.0
1112,0.0,0.0,-0.87035569594,0.49242356010300004,0.0,0.0,-0.021816615649900003,0.0,0.0,0.0
1113,0.0,0.0,-0.8704416268080001,0.492271646879,0.0,0.0,-0.00593411945678,0.0,0.0,0.0
1114,0.0,0.0,-0.870484582298,0.492195684643,0.0,0.0,-0.00820304748437,0.0,0.0,0.0
1115,0.0,0.0,-0.870699260309,0.49181581725,0.0,0.0,-0.00977384381117,0.0,0.0,0.0
1116,0.0,0.0,-0.8707850851000001,0.491663844071,0.0,0.0,-0.017278759594700002,0.0,0.0,0.0
1117,0.0,0.0,-0.870913772551,0.491435856222,0.0,0.0,-0.0012217304764,0.0,0.0,0.0
1118,0.0,0.0,-0.870913772551,0.491435856222,0.0,0.0,-0.0013962634016,0.0,0.0,0.0
1119,0.0,0.0,-0.870999531023,0.49128384561000005,0.0,0.0,-0.013788101090799998,0.0,0.0,0.0
1120,0.0,0.0,-0.871342299565,0.490675653552,0.0,0.0,-0.0268780704807,0.0,0.0,0.0
1121,0.0,0.0,-0.871556314255,0.490295412055,0.0,0.0,-0.012217304764,0.0,0.0,0.0
1122,0.0,0.0,-0.8716418736730001,0.490143289315,0.0,0.0,0.0216420827247,0.0,0.0,0.0
1123,0.0,0.0,-0.871684643425,0.490067222346,0.0,0.0,-0.0165806278939,0.0,0.0,0.0
1124,0.0,0.0,-0.8721119757870001,0.48930634748499996,0.0,0.0,-0.0338593874887,0.0,0.0,0.0
1125,0.0,0.0,-0.871983845799,0.48953464909500005,0.0,0.0,0.015533430342700001,0.0,0.0,0.0
1126,0.0,0.0,-0.872026562436,0.48945855228600005,0.0,0.0,0.009599310885969999,0.0,0.0,0.0
1127,0.0,0.0,-0.872026562436,0.48945855228600005,0.0,0.0,-0.0493928178314,0.0,0.0,0.0
1128,0.0,0.0,-0.872453363503,0.488697379276,0.0,0.0,-0.00733038285838,0.0,0.0,0.0
1129,0.0,0.0,-0.872197362572,0.489154127779,0.0,0.0,0.0312413936107,0.0,0.0,0.0
1130,0.0,0.0,-0.872026562436,0.48945855228600005,0.0,0.0,0.0,0.0,0.0,0.0
1131,0.0,0.0,-0.8723253929320001,0.48892577028300005,0.0,0.0,-0.036826447217099996,0.0,0.0,0.0
1132,0.0,0.0,-0.87241071329,0.48877351333400004,0.0,0.0,-0.014311699866400001,0.0,0.0,0.0
1133,0.0,0.0,-0.87241071329,0.48877351333400004,0.0,0.0,0.007679448708779999,0.0,0.0,0.0
1134,0.0,0.0,-0.872282722788,0.489001893172,0.0,0.0,0.0,0.0,0.0,0.0
1135,0.0,0.0,-0.872282722788,0.489001893172,0.0,0.0,-0.0144862327916,0.0,0.0,0.0
1136,0.0,0.0,-0.87241071329,0.48877351333400004,0.0,0.0,0.0,0.0,0.0,0.0
1137,0.0,0.0,-0.872368056432,0.48884964367,0.0,0.0,0.006981317007979999,0.0,0.0,0.0
1138,0.0,0.0,-0.872368056432,0.48884964367,0.0,0.0,0.0,0.0,0.0,0.0
1139,0.0,0.0,-0.872453363503,0.488697379276,0.0,0.0,0.0,0.0,0.0,0.0
1140,0.0,0.0,-0.87241071329,0.48877351333400004,0.0,0.0,0.00628318530718,0.0,0.0,0.0
1141,0.0,0.0,-0.87241071329,0.48877351333400004,0.0,0.0,0.0,0.0,0.0,0.0
1142,0.0,0.0,-0.87241071329,0.48877351333400004,0.0,0.0,0.0,0.0,0.0,0.0
1143,0.0,0.0,-0.87241071329,0.48877351333400004,0.0,0.0,0.0,0.0,0.0,0.0
1144,0.0,0.0,-0.87241071329,0.48877351333400004,0.0,0.0,-0.007679448708779999,0.0,0.0,0.0
1145,0.0,0.0,-0.87241071329,0.48877351333400004,0.0,0.0,0.0,0.0,0.0,0.0
1146,0.0,0.0,-0.87241071329,0.48877351333400004,0.0,0.0,0.0,0.0,0.0,0.0
1147,0.0,0.0,-0.87241071329,0.48877351333400004,0.0,0.0,0.0,0.0,0.0,0.0
1148,0.0,0.0,-0.87241071329,0.48877351333400004,0.0,0.0,0.0,0.0,0.0,0.0
1149,0.0,0.0,-0.87241071329,0.48877351333400004,0.0,0.0,0.0,0.0,0.0,0.0
1150,0.0,0.0,-0.87241071329,0.48877351333400004,0.0,0.0,0.0,0.0,0.0,0.0
1151,0.0,0.0,-0.87241071329,0.48877351333400004,0.0,0.0,0.0,0.0,0.0,0.0
1152,0.0,0.0,-0.87241071329,0.48877351333400004,0.0,0.0,0.0,0.0,0.0,0.0
1153,0.0,0.0,-0.87241071329,0.48877351333400004,0.0,0.0,0.0,0.0,0.0,0.0
1154,0.0,0.0,-0.87241071329,0.48877351333400004,0.0,0.0,0.0,0.0,0.0,0.0
1155,0.0,0.0,-0.87241071329,0.48877351333400004,0.0,0.0,0.0,0.0,0.0,0.0
1156,0.0,0.0,-0.87241071329,0.48877351333400004,0.0,0.0,0.0,0.0,0.0,0.0
1157,0.0,0.0,-0.87241071329,0.48877351333400004,0.0,0.0,0.0,0.0,0.0,0.0
1158,0.0,0.0,-0.87241071329,0.48877351333400004,0.0,0.0,0.0,0.0,0.0,0.0
1159,0.0,0.0,-0.87241071329,0.48877351333400004,0.0,0.0,0.0,0.0,0.0,0.0
1160,0.0,0.0,-0.87241071329,0.48877351333400004,0.0,0.0,0.0,0.0,0.0,0.0
1161,0.0,0.0,-0.87241071329,0.48877351333400004,0.0,0.0,0.0,0.0,0.0,0.0
1162,0.0,0.0,-0.87241071329,0.48877351333400004,0.0,0.0,0.0,0.0,0.0,0.0
1163,0.0,0.0,-0.87241071329,0.48877351333400004,0.0,0.0,0.0,0.0,0.0,0.0
1164,0.0,0.0,-0.87241071329,0.48877351333400004,0.0,0.0,0.0,0.0,0.0,0.0
1165,0.0,0.0,-0.87241071329,0.48877351333400004,0.0,0.0,0.0,0.0,0.0,0.0
1166,0.0,0.0,-0.87241071329,0.48877351333400004,0.0,0.0,0.0,0.0,0.0,0.0
1167,0.0,0.0,-0.87241071329,0.48877351333400004,0.0,0.0,0.0,0.0,0.0,0.0
1168,0.0,0.0,-0.87241071329,0.48877351333400004,0.0,0.0,0.0,0.0,0.0,0.0
1169,0.0,0.0,-0.87241071329,0.48877351333400004,0.0,0.0,0.0,0.0,0.0,0.0
1170,0.0,0.0,-0.87241071329,0.48877351333400004,0.0,0.0,0.0,0.0,0.0,0.0
