,orientation_X,orientation_Y,orientation_Z,orientation_W,angular_velocity_X,angular_velocity_Y,angular_velocity_Z,linear_acceleration_X,linear_acceleration_Y,linear_acceleration_Z
0,0.0,0.0,0.9594124718539999,0.2820065759,0.0,0.0,0.0,0.0,0.0,0.0
1,0.0,0.0,0.9594124718539999,0.2820065759,0.0,0.0,0.0,0.0,0.0,0.0
2,0.0,0.0,0.9594124718539999,0.2820065759,0.0,0.0,0.0,0.0,0.0,0.0
3,0.0,0.0,0.9594124718539999,0.2820065759,0.0,0.0,0.0,0.0,0.0,0.0
4,0.0,0.0,0.9594124718539999,0.2820065759,0.0,0.0,0.0,0.0,0.0,0.0
5,0.0,0.0,0.9594124718539999,0.2820065759,0.0,0.0,0.0,0.0,0.0,0.0
6,0.0,0.0,0.9594124718539999,0.2820065759,0.0,0.0,0.0,0.0,0.0,0.0
7,0.0,0.0,0.9594124718539999,0.2820065759,0.0,0.0,0.0,0.0,0.0,0.0
8,0.0,0.0,0.9594124718539999,0.2820065759,0.0,0.0,0.0,0.0,0.0,0.0
9,0.0,0.0,0.9594124718539999,0.2820065759,0.0,0.0,0.0,0.0,0.0,0.0
10,0.0,0.0,0.9594124718539999,0.2820065759,0.0,0.0,0.0,0.0,0.0,0.0
11,0.0,0.0,0.9594124718539999,0.2820065759,0.0,0.0,0.0,0.0,0.0,0.0
12,0.0,0.0,0.9594124718539999,0.2820065759,0.0,0.0,0.0,0.0,0.0,0.0
13,0.0,0.0,0.9594124718539999,0.2820065759,0.0,0.0,0.0,0.0,0.0,0.0
14,0.0,0.0,0.9594124718539999,0.2820065759,0.0,0.0,0.0,0.0,0.0,0.0
15,0.0,0.0,0.9594124718539999,0.2820065759,0.0,0.0,0.0,0.0,0.0,0.0
16,0.0,0.0,0.9594124718539999,0.2820065759,0.0,0.0,0.0,0.0,0.0,0.0
17,0.0,0.0,0.9594124718539999,0.2820065759,0.0,0.0,0.0,0.0,0.0,0.0
18,0.0,0.0,0.9594124718539999,0.2820065759,0.0,0.0,0.0,0.0,0.0,0.0
19,0.0,0.0,0.9594124718539999,0.2820065759,0.0,0.0,0.0,0.0,0.0,0.0
20,0.0,0.0,0.9594124718539999,0.2820065759,0.0,0.0,0.0,0.0,0.0,0.0
21,0.0,0.0,0.9594124718539999,0.2820065759,0.0,0.0,-0.000872664625997,0.0,0.0,0.0
22,0.0,0.0,0.9594124718539999,0.2820065759,0.0,0.0,0.00261799387799,0.0,0.0,0.0
23,0.0,0.0,0.9594124718539999,0.2820065759,0.0,0.0,-0.00226892802759,0.0,0.0,0.0
24,0.0,0.0,0.959338609827,0.282257739831,0.0,0.0,0.000349065850399,0.0,0.0,0.0
25,0.0,0.0,0.959363237809,0.282174020669,0.0,0.0,-0.000872664625997,0.0,0.0,0.0
26,0.0,0.0,0.958794946203,0.28409901642900004,0.0,0.0,-0.08447393579649999,0.0,0.0,0.0
27,0.0,0.0,0.958521789017,0.28501926247,0.0,0.0,-0.00366519142919,0.0,0.0,0.0
28,0.0,0.0,0.95862122111,0.284684657889,0.0,0.0,-0.000174532925199,0.0,0.0,0.0
29,0.0,0.0,0.9585963740369999,0.284768312288,0.0,0.0,0.00488692190558,0.0,0.0,0.0
30,0.0,0.0,0.958447138302,0.285270193117,0.0,0.0,-0.0317649923863,0.0,0.0,0.0
31,0.0,0.0,0.958422240132,0.285353832322,0.0,0.0,0.0034906585039899997,0.0,0.0,0.0
32,0.0,0.0,0.958372421895,0.285521104212,0.0,0.0,-0.00715584993318,0.0,0.0,0.0
33,0.0,0.0,0.9583973346629999,0.285437469354,0.0,0.0,-0.012217304764,0.0,0.0,0.0
34,0.0,0.0,0.958272697843,0.285855621895,0.0,0.0,-0.007679448708779999,0.0,0.0,0.0
35,0.0,0.0,0.9582477485850001,0.28593924587499997,0.0,0.0,-0.0013962634016,0.0,0.0,0.0
36,0.0,0.0,0.958172857028,0.286190104747,0.0,0.0,-0.014660765716799999,0.0,0.0,0.0
37,0.0,0.0,0.958097899798,0.286440944004,0.0,0.0,-0.00174532925199,0.0,0.0,0.0
38,0.0,0.0,0.958097899798,0.286440944004,0.0,0.0,-0.00157079632679,0.0,0.0,0.0
39,0.0,0.0,0.958072899462,0.286524552728,0.0,0.0,0.00645771823238,0.0,0.0,0.0
40,0.0,0.0,0.958122892838,0.286357333099,0.0,0.0,0.020943951023900002,0.0,0.0,0.0
41,0.0,0.0,0.958097899798,0.286440944004,0.0,0.0,-0.0186750229963,0.0,0.0,0.0
42,0.0,0.0,0.958072899462,0.286524552728,0.0,0.0,-0.0178023583703,0.0,0.0,0.0
43,0.0,0.0,0.957947788344,0.286942563604,0.0,0.0,-0.007679448708779999,0.0,0.0,0.0
44,0.0,0.0,0.957922744234,0.287026159226,0.0,0.0,-0.0101229096616,0.0,0.0,0.0
45,0.0,0.0,0.9578976928290001,0.287109752662,0.0,0.0,-0.00837758040957,0.0,0.0,0.0
46,0.0,0.0,0.957847568134,0.287276932975,0.0,0.0,-0.00558505360638,0.0,0.0,0.0
47,0.0,0.0,0.957847568134,0.287276932975,0.0,0.0,0.0012217304764,0.0,0.0,0.0
48,0.0,0.0,0.957847568134,0.287276932975,0.0,0.0,-0.000872664625997,0.0,0.0,0.0
49,0.0,0.0,0.9577723263850001,0.287527687034,0.0,0.0,-0.014311699866400001,0.0,0.0,0.0
50,0.0,0.0,0.957697018991,0.287778421386,0.0,0.0,-0.0005235987755980001,0.0,0.0,0.0
51,0.0,0.0,0.957747231214,0.287611267342,0.0,0.0,-0.0050614548307799994,0.0,0.0,0.0
52,0.0,0.0,0.95767190194,0.287861995122,0.0,0.0,-0.00820304748437,0.0,0.0,0.0
53,0.0,0.0,0.957596507027,0.288112703171,0.0,0.0,-0.0202458193231,0.0,0.0,0.0
54,0.0,0.0,0.95767190194,0.287861995122,0.0,0.0,0.012217304764,0.0,0.0,0.0
55,0.0,0.0,0.9576216459579999,0.288029136015,0.0,0.0,-0.0169296937443,0.0,0.0,0.0
56,0.0,0.0,0.957571360805,0.288196268134,0.0,0.0,0.00244346095279,0.0,0.0,0.0
57,0.0,0.0,0.957470702993,0.288530506031,0.0,0.0,-0.0207694180987,0.0,0.0,0.0
58,0.0,0.0,0.9574958783840001,0.288446949851,0.0,0.0,0.0193731546971,0.0,0.0,0.0
59,0.0,0.0,0.9574958783840001,0.288446949851,0.0,0.0,-0.0197222205475,0.0,0.0,0.0
60,0.0,0.0,0.957395133072,0.288781161384,0.0,0.0,-0.0050614548307799994,0.0,0.0,0.0
61,0.0,0.0,0.9573447166689999,0.288948253958,0.0,0.0,-0.0216420827247,0.0,0.0,0.0
62,0.0,0.0,0.957319497532,0.289031796944,0.0,0.0,0.009599310885969999,0.0,0.0,0.0
63,0.0,0.0,0.9573447166689999,0.288948253958,0.0,0.0,0.00837758040957,0.0,0.0,0.0
64,0.0,0.0,0.9572942711040001,0.28911533773000003,0.0,0.0,0.0038397243543899996,0.0,0.0,0.0
65,0.0,0.0,0.957420330337,0.288697611798,0.0,0.0,0.004363323129989999,0.0,0.0,0.0
66,0.0,0.0,0.9573699285160001,0.28886470877099996,0.0,0.0,-0.0219911485751,0.0,0.0,0.0
67,0.0,0.0,0.957218548081,0.289365946873,0.0,0.0,0.0005235987755980001,0.0,0.0,0.0
68,0.0,0.0,0.957269037387,0.289198876314,0.0,0.0,-0.0157079632679,0.0,0.0,0.0
69,0.0,0.0,0.9571932924940001,0.289449478848,0.0,0.0,-0.0254818070791,0.0,0.0,0.0
70,0.0,0.0,0.957117481996,0.28970006154399996,0.0,0.0,0.0020943951023900003,0.0,0.0,0.0
71,0.0,0.0,0.956965664205,0.290201167351,0.0,0.0,-0.011868238913600001,0.0,0.0,0.0
72,0.0,0.0,0.956940335732,0.29028467725400003,0.0,0.0,-0.009599310885969999,0.0,0.0,0.0
73,0.0,0.0,0.957041605898,0.289950624384,0.0,0.0,0.00523598775598,0.0,0.0,0.0
74,0.0,0.0,0.956990985391,0.290117655238,0.0,0.0,-0.0191986217719,0.0,0.0,0.0
75,0.0,0.0,0.956838948966,0.29061869475499996,0.0,0.0,-0.000349065850399,0.0,0.0,0.0
76,0.0,0.0,0.9567882118619999,0.290785690228,0.0,0.0,-0.0277507351067,0.0,0.0,0.0
77,0.0,0.0,0.956762832381,0.290869184643,0.0,0.0,0.0169296937443,0.0,0.0,0.0
78,0.0,0.0,0.956762832381,0.290869184643,0.0,0.0,-0.028972465583099998,0.0,0.0,0.0
79,0.0,0.0,0.956762832381,0.290869184643,0.0,0.0,0.0183259571459,0.0,0.0,0.0
80,0.0,0.0,0.956534089191,0.291620534626,0.0,0.0,-0.05270894341019999,0.0,0.0,0.0
81,0.0,0.0,0.956381265923,0.29212133470699997,0.0,0.0,0.0010471975512,0.0,0.0,0.0
82,0.0,0.0,0.956202640726,0.292705500237,0.0,0.0,-0.022165681500300002,0.0,0.0,0.0
83,0.0,0.0,0.956355769886,0.292204793604,0.0,0.0,0.0132645023152,0.0,0.0,0.0
84,0.0,0.0,0.956100408978,0.293039260085,0.0,0.0,-0.036302848441499995,0.0,0.0,0.0
85,0.0,0.0,0.956100408978,0.293039260085,0.0,0.0,-0.0129154364648,0.0,0.0,0.0
86,0.0,0.0,0.9559980607330001,0.293372984228,0.0,0.0,0.005759586531579999,0.0,0.0,0.0
87,0.0,0.0,0.9560236587150001,0.293289556542,0.0,0.0,-0.024609142453099996,0.0,0.0,0.0
88,0.0,0.0,0.9559468429279999,0.293539832896,0.0,0.0,-0.0277507351067,0.0,0.0,0.0
89,0.0,0.0,0.9559212231049999,0.293623253878,0.0,0.0,-0.00628318530718,0.0,0.0,0.0
90,0.0,0.0,0.956202640726,0.292705500237,0.0,0.0,0.0338593874887,0.0,0.0,0.0
91,0.0,0.0,0.9559724554700001,0.293456409679,0.0,0.0,-0.0345575191895,0.0,0.0,0.0
92,0.0,0.0,0.9559468429279999,0.293539832896,0.0,0.0,0.0013962634016,0.0,0.0,0.0
93,0.0,0.0,0.95586996162,0.293790089132,0.0,0.0,-0.0176278254451,0.0,0.0,0.0
94,0.0,0.0,0.95586996162,0.293790089132,0.0,0.0,0.0165806278939,0.0,0.0,0.0
95,0.0,0.0,0.956125977838,0.292955823469,0.0,0.0,0.0111701072128,0.0,0.0,0.0
96,0.0,0.0,0.9558443199590001,0.293873503404,0.0,0.0,-0.0109955742876,0.0,0.0,0.0
97,0.0,0.0,0.95586996162,0.293790089132,0.0,0.0,0.0183259571459,0.0,0.0,0.0
98,0.0,0.0,0.955895596002,0.293706672624,0.0,0.0,-0.0300196631343,0.0,0.0,0.0
99,0.0,0.0,0.95586996162,0.293790089132,0.0,0.0,0.015358897417600001,0.0,0.0,0.0
100,0.0,0.0,0.955895596002,0.293706672624,0.0,0.0,0.0111701072128,0.0,0.0,0.0
101,0.0,0.0,0.955793014798,0.294040325232,0.0,0.0,0.0164060949687,0.0,0.0,0.0
102,0.0,0.0,0.955895596002,0.293706672624,0.0,0.0,0.042411500823499995,0.0,0.0,0.0
103,0.0,0.0,0.9559724554700001,0.293456409679,0.0,0.0,-0.036826447217099996,0.0,0.0,0.0
104,0.0,0.0,0.95586996162,0.293790089132,0.0,0.0,0.025830872929500003,0.0,0.0,0.0
105,0.0,0.0,0.955793014798,0.294040325232,0.0,0.0,-0.0319395253115,0.0,0.0,0.0
106,0.0,0.0,0.955818671018,0.293956915437,0.0,0.0,0.0134390352404,0.0,0.0,0.0
107,0.0,0.0,0.955613217466,0.29462413106199997,0.0,0.0,-0.0335103216383,0.0,0.0,0.0
108,0.0,0.0,0.9556903171340001,0.294373942013,0.0,0.0,0.0012217304764,0.0,0.0,0.0
109,0.0,0.0,0.955484572474,0.295041067928,0.0,0.0,-0.00628318530718,0.0,0.0,0.0
110,0.0,0.0,0.955484572474,0.295041067928,0.0,0.0,-0.028972465583099998,0.0,0.0,0.0
111,0.0,0.0,0.955329958363,0.29554131801399997,0.0,0.0,0.009075712110370001,0.0,0.0,0.0
112,0.0,0.0,0.955484572474,0.295041067928,0.0,0.0,-0.023561944901900004,0.0,0.0,0.0
113,0.0,0.0,0.955381525503,0.295374576981,0.0,0.0,0.0193731546971,0.0,0.0,0.0
114,0.0,0.0,0.955458821645,0.295124448563,0.0,0.0,0.00942477796077,0.0,0.0,0.0
115,0.0,0.0,0.955252553089,0.295791412681,0.0,0.0,-0.0253072741539,0.0,0.0,0.0
116,0.0,0.0,0.955381525503,0.295374576981,0.0,0.0,-0.009075712110370001,0.0,0.0,0.0
117,0.0,0.0,0.95530416388,0.295624685155,0.0,0.0,-0.036826447217099996,0.0,0.0,0.0
118,0.0,0.0,0.955329958363,0.29554131801399997,0.0,0.0,0.0268780704807,0.0,0.0,0.0
119,0.0,0.0,0.955355745571,0.295457948623,0.0,0.0,0.00296705972839,0.0,0.0,0.0
120,0.0,0.0,0.9550975461310001,0.296291541179,0.0,0.0,0.00296705972839,0.0,0.0,0.0
121,0.0,0.0,0.955149244213,0.29612484069899997,0.0,0.0,0.026005405854700004,0.0,0.0,0.0
122,0.0,0.0,0.9552267367820001,0.295874773066,0.0,0.0,-0.0193731546971,0.0,0.0,0.0
123,0.0,0.0,0.9552009131999999,0.295958131198,0.0,0.0,-0.0033161255787899995,0.0,0.0,0.0
124,0.0,0.0,0.9552009131999999,0.295958131198,0.0,0.0,-0.0345575191895,0.0,0.0,0.0
125,0.0,0.0,0.9548386193430001,0.297124908097,0.0,0.0,0.010471975512,0.0,0.0,0.0
126,0.0,0.0,0.954916373739,0.29687492175200003,0.0,0.0,0.0301941960595,0.0,0.0,0.0
127,0.0,0.0,0.954890462879,0.296958252795,0.0,0.0,-0.0195476876223,0.0,0.0,0.0
128,0.0,0.0,0.954864544747,0.297041581577,0.0,0.0,-0.0171042266695,0.0,0.0,0.0
129,0.0,0.0,0.9544488658140001,0.298374534012,0.0,0.0,-0.0214675497995,0.0,0.0,0.0
130,0.0,0.0,0.954474900269,0.29829124149999997,0.0,0.0,0.00855211333477,0.0,0.0,0.0
131,0.0,0.0,0.9544228240889999,0.298457824252,0.0,0.0,-0.000349065850399,0.0,0.0,0.0
132,0.0,0.0,0.954344655307,0.298707681332,0.0,0.0,-0.011868238913600001,0.0,0.0,0.0
133,0.0,0.0,0.9544488658140001,0.298374534012,0.0,0.0,-0.00942477796077,0.0,0.0,0.0
134,0.0,0.0,0.954292506446,0.298874241346,0.0,0.0,0.009250245035569999,0.0,0.0,0.0
135,0.0,0.0,0.954292506446,0.298874241346,0.0,0.0,-0.0160570291183,0.0,0.0,0.0
136,0.0,0.0,0.9542142286509999,0.299124064295,0.0,0.0,0.00855211333477,0.0,0.0,0.0
137,0.0,0.0,0.954135885454,0.299373866742,0.0,0.0,-0.00453785605519,0.0,0.0,0.0
138,0.0,0.0,0.9541620071200001,0.299290601539,0.0,0.0,0.013962634016,0.0,0.0,0.0
139,0.0,0.0,0.954292506446,0.298874241346,0.0,0.0,0.0034906585039899997,0.0,0.0,0.0
140,0.0,0.0,0.954135885454,0.299373866742,0.0,0.0,-0.009250245035569999,0.0,0.0,0.0
141,0.0,0.0,0.954109756523,0.299457129666,0.0,0.0,-0.00157079632679,0.0,0.0,0.0
142,0.0,0.0,0.9540574768619999,0.299623648671,0.0,0.0,-0.012042771838799999,0.0,0.0,0.0
143,0.0,0.0,0.954031326134,0.299706904751,0.0,0.0,0.000872664625997,0.0,0.0,0.0
144,0.0,0.0,0.954083620326,0.29954039030900004,0.0,0.0,-0.00296705972839,0.0,0.0,0.0
145,0.0,0.0,0.9540574768619999,0.299623648671,0.0,0.0,-0.0150098315672,0.0,0.0,0.0
146,0.0,0.0,0.9541620071200001,0.299290601539,0.0,0.0,0.0169296937443,0.0,0.0,0.0
147,0.0,0.0,0.954188121518,0.29920733405600003,0.0,0.0,0.0019198621771900001,0.0,0.0,0.0
148,0.0,0.0,0.954083620326,0.29954039030900004,0.0,0.0,-0.0050614548307799994,0.0,0.0,0.0
149,0.0,0.0,0.9540574768619999,0.299623648671,0.0,0.0,-0.0207694180987,0.0,0.0,0.0
150,0.0,0.0,0.9540051681399999,0.299790158549,0.0,0.0,-0.014835298642,0.0,0.0,0.0
151,0.0,0.0,0.954031326134,0.299706904751,0.0,0.0,0.00977384381117,0.0,0.0,0.0
152,0.0,0.0,0.954083620326,0.29954039030900004,0.0,0.0,0.0129154364648,0.0,0.0,0.0
153,0.0,0.0,0.9540574768619999,0.299623648671,0.0,0.0,-0.000872664625997,0.0,0.0,0.0
154,0.0,0.0,0.953979002881,0.299873410064,0.0,0.0,-0.030717794835099996,0.0,0.0,0.0
155,0.0,0.0,0.9540051681399999,0.299790158549,0.0,0.0,0.0242600766027,0.0,0.0,0.0
156,0.0,0.0,0.9540574768619999,0.299623648671,0.0,0.0,-0.008901179185170001,0.0,0.0,0.0
157,0.0,0.0,0.9540574768619999,0.299623648671,0.0,0.0,-0.000872664625997,0.0,0.0,0.0
158,0.0,0.0,0.9538742691959999,0.300206393279,0.0,0.0,0.00279252680319,0.0,0.0,0.0
159,0.0,0.0,0.953979002881,0.299873410064,0.0,0.0,-0.008901179185170001,0.0,0.0,0.0
160,0.0,0.0,0.9539266505670001,0.300039906241,0.0,0.0,0.00610865238198,0.0,0.0,0.0
161,0.0,0.0,0.953690705585,0.30078902586399997,0.0,0.0,-0.03403392041390001,0.0,0.0,0.0
162,0.0,0.0,0.953795642658,0.300456106688,0.0,0.0,0.0151843644924,0.0,0.0,0.0
163,0.0,0.0,0.953795642658,0.300456106688,0.0,0.0,-0.0205948851735,0.0,0.0,0.0
164,0.0,0.0,0.9537694192849999,0.300539339916,0.0,0.0,-0.0164060949687,0.0,0.0,0.0
165,0.0,0.0,0.9536381934720001,0.30095547171,0.0,0.0,0.00261799387799,0.0,0.0,0.0
166,0.0,0.0,0.953690705585,0.30078902586399997,0.0,0.0,-0.000872664625997,0.0,0.0,0.0
167,0.0,0.0,0.953690705585,0.30078902586399997,0.0,0.0,-0.0013962634016,0.0,0.0,0.0
168,0.0,0.0,0.953611926521,0.301038691196,0.0,0.0,-0.0317649923863,0.0,0.0,0.0
169,0.0,0.0,0.953533082097,0.301288335895,0.0,0.0,-0.023561944901900004,0.0,0.0,0.0
170,0.0,0.0,0.953533082097,0.301288335895,0.0,0.0,0.00174532925199,0.0,0.0,0.0
171,0.0,0.0,0.9535856523080001,0.301121908389,0.0,0.0,0.0136135681656,0.0,0.0,0.0
172,0.0,0.0,0.9536381934720001,0.30095547171,0.0,0.0,0.0,0.0,0.0,0.0
173,0.0,0.0,0.953611926521,0.301038691196,0.0,0.0,-0.00994837673637,0.0,0.0,0.0
174,0.0,0.0,0.9534278545370001,0.301621163369,0.0,0.0,-0.000349065850399,0.0,0.0,0.0
175,0.0,0.0,0.9534015294949999,0.301704364497,0.0,0.0,-0.00244346095279,0.0,0.0,0.0
176,0.0,0.0,0.9534278545370001,0.301621163369,0.0,0.0,0.00628318530718,0.0,0.0,0.0
177,0.0,0.0,0.9534015294949999,0.301704364497,0.0,0.0,-0.0116937059884,0.0,0.0,0.0
178,0.0,0.0,0.9533488576289999,0.301870759858,0.0,0.0,-0.024609142453099996,0.0,0.0,0.0
179,0.0,0.0,0.953296156722,0.302037146025,0.0,0.0,0.00471238898038,0.0,0.0,0.0
180,0.0,0.0,0.9532434267759999,0.30220352299000003,0.0,0.0,-0.0034906585039899997,0.0,0.0,0.0
181,0.0,0.0,0.953137879774,0.3025362493,0.0,0.0,-0.0232128790515,0.0,0.0,0.0
182,0.0,0.0,0.9530850627200002,0.302702598633,0.0,0.0,0.00157079632679,0.0,0.0,0.0
183,0.0,0.0,0.9530850627200002,0.302702598633,0.0,0.0,-0.007679448708779999,0.0,0.0,0.0
184,0.0,0.0,0.953032216634,0.302868938746,0.0,0.0,-0.0191986217719,0.0,0.0,0.0
185,0.0,0.0,0.953032216634,0.302868938746,0.0,0.0,0.0179768912955,0.0,0.0,0.0
186,0.0,0.0,0.953005782705,0.302952105343,0.0,0.0,0.00471238898038,0.0,0.0,0.0
187,0.0,0.0,0.952952893073,0.303118431615,0.0,0.0,-0.00872664625997,0.0,0.0,0.0
188,0.0,0.0,0.952899974412,0.303284748653,0.0,0.0,0.00872664625997,0.0,0.0,0.0
189,0.0,0.0,0.952899974412,0.303284748653,0.0,0.0,-0.0207694180987,0.0,0.0,0.0
190,0.0,0.0,0.952767550771,0.303700500819,0.0,0.0,-0.017453292519900004,0.0,0.0,0.0
191,0.0,0.0,0.952741044275,0.303783644317,0.0,0.0,0.0134390352404,0.0,0.0,0.0
192,0.0,0.0,0.952794050011,0.303617355009,0.0,0.0,0.00977384381117,0.0,0.0,0.0
193,0.0,0.0,0.952741044275,0.303783644317,0.0,0.0,-0.0136135681656,0.0,0.0,0.0
194,0.0,0.0,0.952794050011,0.303617355009,0.0,0.0,0.0185004900711,0.0,0.0,0.0
195,0.0,0.0,0.952767550771,0.303700500819,0.0,0.0,-0.0127409035396,0.0,0.0,0.0
196,0.0,0.0,0.952820541996,0.303534206887,0.0,0.0,0.027925268031900003,0.0,0.0,0.0
197,0.0,0.0,0.9528735041959999,0.303367903708,0.0,0.0,0.0169296937443,0.0,0.0,0.0
198,0.0,0.0,0.952767550771,0.303700500819,0.0,0.0,-0.0050614548307799994,0.0,0.0,0.0
199,0.0,0.0,0.953058643306,0.302785769843,0.0,0.0,0.008028514559169999,0.0,0.0,0.0
200,0.0,0.0,0.953032216634,0.302868938746,0.0,0.0,-0.0242600766027,0.0,0.0,0.0
201,0.0,0.0,0.952899974412,0.303284748653,0.0,0.0,-0.014137166941200001,0.0,0.0,0.0
202,0.0,0.0,0.952767550771,0.303700500819,0.0,0.0,-0.0162315620435,0.0,0.0,0.0
203,0.0,0.0,0.952741044275,0.303783644317,0.0,0.0,-0.007853981633970001,0.0,0.0,0.0
204,0.0,0.0,0.952714530523,0.303866785501,0.0,0.0,-0.0237364778271,0.0,0.0,0.0
205,0.0,0.0,0.9526614812540001,0.304033060925,0.0,0.0,-0.00226892802759,0.0,0.0,0.0
206,0.0,0.0,0.952581852938,0.304282456696,0.0,0.0,0.00750491578358,0.0,0.0,0.0
207,0.0,0.0,0.952581852938,0.304282456696,0.0,0.0,-0.00610865238198,0.0,0.0,0.0
208,0.0,0.0,0.9525021593340001,0.30453183161200004,0.0,0.0,-0.014835298642,0.0,0.0,0.0
209,0.0,0.0,0.952315953719,0.30511362521499996,0.0,0.0,-0.0301941960595,0.0,0.0,0.0
210,0.0,0.0,0.9524224004459999,0.304781185655,0.0,0.0,0.010821041362399999,0.0,0.0,0.0
211,0.0,0.0,0.9524224004459999,0.304781185655,0.0,0.0,0.0205948851735,0.0,0.0,0.0
212,0.0,0.0,0.952369191588,0.304947410079,0.0,0.0,-0.035604716740699996,0.0,0.0,0.0
213,0.0,0.0,0.95234257628,0.305030518809,0.0,0.0,-0.006632251157579999,0.0,0.0,0.0
214,0.0,0.0,0.952369191588,0.304947410079,0.0,0.0,-0.006632251157579999,0.0,0.0,0.0
215,0.0,0.0,0.9522360425249999,0.30536293049,0.0,0.0,-0.0129154364648,0.0,0.0,0.0
216,0.0,0.0,0.952129392742,0.305695304963,0.0,0.0,-0.0277507351067,0.0,0.0,0.0
217,0.0,0.0,0.952262686841,0.305279831056,0.0,0.0,0.046251225177800004,0.0,0.0,0.0
218,0.0,0.0,0.9522360425249999,0.30536293049,0.0,0.0,-0.00750491578358,0.0,0.0,0.0
219,0.0,0.0,0.9522360425249999,0.30536293049,0.0,0.0,-0.00366519142919,0.0,0.0,0.0
220,0.0,0.0,0.952022626946,0.30602764218899997,0.0,0.0,-0.0342084533391,0.0,0.0,0.0
221,0.0,0.0,0.9522360425249999,0.30536293049,0.0,0.0,0.055152404363,0.0,0.0,0.0
222,0.0,0.0,0.952315953719,0.30511362521499996,0.0,0.0,0.0111701072128,0.0,0.0,0.0
223,0.0,0.0,0.952289323906,0.305196729298,0.0,0.0,0.0193731546971,0.0,0.0,0.0
224,0.0,0.0,0.9526084029649999,0.304199327089,0.0,0.0,-0.0197222205475,0.0,0.0,0.0
225,0.0,0.0,0.952475580291,0.304614951946,0.0,0.0,-0.043982297150300005,0.0,0.0,0.0
226,0.0,0.0,0.952156066065,0.305612214835,0.0,0.0,-0.0343829862643,0.0,0.0,0.0
227,0.0,0.0,0.951781979795,0.30677526454799997,0.0,0.0,0.0181514242207,0.0,0.0,0.0
228,0.0,0.0,0.951889006575,0.306443011278,0.0,0.0,0.039793506945500004,0.0,0.0,0.0
229,0.0,0.0,0.9521027121690001,0.305778392763,0.0,0.0,-0.0010471975512,0.0,0.0,0.0
230,0.0,0.0,0.951781979795,0.30677526454799997,0.0,0.0,-0.03525565089030001,0.0,0.0,0.0
231,0.0,0.0,0.951674837042,0.307107480437,0.0,0.0,-0.035604716740699996,0.0,0.0,0.0
232,0.0,0.0,0.951808747363,0.30669220473299996,0.0,0.0,0.00471238898038,0.0,0.0,0.0
233,0.0,0.0,0.9517552049779999,0.306858322026,0.0,0.0,-0.0193731546971,0.0,0.0,0.0
234,0.0,0.0,0.951781979795,0.30677526454799997,0.0,0.0,0.014137166941200001,0.0,0.0,0.0
235,0.0,0.0,0.951648033235,0.30719052856400003,0.0,0.0,-0.0134390352404,0.0,0.0,0.0
236,0.0,0.0,0.951701633602,0.307024429971,0.0,0.0,-0.0305432619099,0.0,0.0,0.0
237,0.0,0.0,0.951513905495,0.307605734096,0.0,0.0,0.006981317007979999,0.0,0.0,0.0
238,0.0,0.0,0.951513905495,0.307605734096,0.0,0.0,-0.0116937059884,0.0,0.0,0.0
239,0.0,0.0,0.951648033235,0.30719052856400003,0.0,0.0,0.0202458193231,0.0,0.0,0.0
240,0.0,0.0,0.9514602036750001,0.307771799916,0.0,0.0,-0.0038397243543899996,0.0,0.0,0.0
241,0.0,0.0,0.951648033235,0.30719052856400003,0.0,0.0,-0.009599310885969999,0.0,0.0,0.0
242,0.0,0.0,0.951540745537,0.307522697673,0.0,0.0,0.013089969390000001,0.0,0.0,0.0
243,0.0,0.0,0.951379596601,0.308020881065,0.0,0.0,-0.0198967534727,0.0,0.0,0.0
244,0.0,0.0,0.951674837042,0.307107480437,0.0,0.0,0.0219911485751,0.0,0.0,0.0
245,0.0,0.0,0.951621222181,0.307273574352,0.0,0.0,-0.0190240888467,0.0,0.0,0.0
246,0.0,0.0,0.951621222181,0.307273574352,0.0,0.0,0.008028514559169999,0.0,0.0,0.0
247,0.0,0.0,0.9513527130859999,0.308103903424,0.0,0.0,-0.014660765716799999,0.0,0.0,0.0
248,0.0,0.0,0.951406472871,0.30793785636,0.0,0.0,0.0249582083035,0.0,0.0,0.0
249,0.0,0.0,0.951540745537,0.307522697673,0.0,0.0,-0.0280998009571,0.0,0.0,0.0
250,0.0,0.0,0.9514602036750001,0.307771799916,0.0,0.0,-0.008028514559169999,0.0,0.0,0.0
251,0.0,0.0,0.951540745537,0.307522697673,0.0,0.0,-0.00680678408278,0.0,0.0,0.0
252,0.0,0.0,0.9514870582080001,0.307688768178,0.0,0.0,-0.024609142453099996,0.0,0.0,0.0
253,0.0,0.0,0.951513905495,0.307605734096,0.0,0.0,0.026354471705099997,0.0,0.0,0.0
254,0.0,0.0,0.951540745537,0.307522697673,0.0,0.0,0.0010471975512,0.0,0.0,0.0
255,0.0,0.0,0.951433341896,0.30785482930999997,0.0,0.0,0.009250245035569999,0.0,0.0,0.0
256,0.0,0.0,0.951379596601,0.308020881065,0.0,0.0,-0.0268780704807,0.0,0.0,0.0
257,0.0,0.0,0.9513527130859999,0.308103903424,0.0,0.0,0.0033161255787899995,0.0,0.0,0.0
258,0.0,0.0,0.951594403879,0.3073566178,0.0,0.0,-0.0202458193231,0.0,0.0,0.0
259,0.0,0.0,0.951567578331,0.30743965890700004,0.0,0.0,0.00977384381117,0.0,0.0,0.0
260,0.0,0.0,0.951379596601,0.308020881065,0.0,0.0,-0.010646508437200001,0.0,0.0,0.0
261,0.0,0.0,0.951379596601,0.308020881065,0.0,0.0,0.010471975512,0.0,0.0,0.0
262,0.0,0.0,0.951594403879,0.3073566178,0.0,0.0,-0.005410520681180001,0.0,0.0,0.0
263,0.0,0.0,0.951621222181,0.307273574352,0.0,0.0,0.00523598775598,0.0,0.0,0.0
264,0.0,0.0,0.9514870582080001,0.307688768178,0.0,0.0,-0.0010471975512,0.0,0.0,0.0
265,0.0,0.0,0.951674837042,0.307107480437,0.0,0.0,-0.00418879020479,0.0,0.0,0.0
266,0.0,0.0,0.951621222181,0.307273574352,0.0,0.0,-0.011868238913600001,0.0,0.0,0.0
267,0.0,0.0,0.951379596601,0.308020881065,0.0,0.0,-0.0382227106187,0.0,0.0,0.0
268,0.0,0.0,0.951567578331,0.30743965890700004,0.0,0.0,0.039618974020300006,0.0,0.0,0.0
269,0.0,0.0,0.9514870582080001,0.307688768178,0.0,0.0,-0.000698131700798,0.0,0.0,0.0
270,0.0,0.0,0.951406472871,0.30793785636,0.0,0.0,-0.0317649923863,0.0,0.0,0.0
271,0.0,0.0,0.9513258223250001,0.308186923436,0.0,0.0,-0.009075712110370001,0.0,0.0,0.0
272,0.0,0.0,0.9514870582080001,0.307688768178,0.0,0.0,0.00750491578358,0.0,0.0,0.0
273,0.0,0.0,0.9513527130859999,0.308103903424,0.0,0.0,0.0190240888467,0.0,0.0,0.0
274,0.0,0.0,0.951379596601,0.308020881065,0.0,0.0,0.0102974425868,0.0,0.0,0.0
275,0.0,0.0,0.951110435449,0.308850998993,0.0,0.0,-0.0312413936107,0.0,0.0,0.0
276,0.0,0.0,0.951083479494,0.30893399786,0.0,0.0,-0.0034906585039899997,0.0,0.0,0.0
277,0.0,0.0,0.9509755832439999,0.309265969796,0.0,0.0,-0.0354301838155,0.0,0.0,0.0
278,0.0,0.0,0.9508945850139999,0.30951492401999997,0.0,0.0,-0.0132645023152,0.0,0.0,0.0
279,0.0,0.0,0.9510025681700001,0.309182980343,0.0,0.0,-0.021816615649900003,0.0,0.0,0.0
280,0.0,0.0,0.951029545854,0.309099988536,0.0,0.0,0.0207694180987,0.0,0.0,0.0
281,0.0,0.0,0.951029545854,0.309099988536,0.0,0.0,0.0,0.0,0.0,0.0
282,0.0,0.0,0.950759443137,0.309929800577,0.0,0.0,-0.020943951023900002,0.0,0.0,0.0
283,0.0,0.0,0.950705335702,0.310095734683,0.0,0.0,-0.0183259571459,0.0,0.0,0.0
284,0.0,0.0,0.9505428396410001,0.310593480302,0.0,0.0,0.0136135681656,0.0,0.0,0.0
285,0.0,0.0,0.9506782711239999,0.310178698193,0.0,0.0,0.0005235987755980001,0.0,0.0,0.0
286,0.0,0.0,0.950786485994,0.309846829984,0.0,0.0,0.011344640138,0.0,0.0,0.0
287,0.0,0.0,0.950624120249,0.310344618128,0.0,0.0,-0.0345575191895,0.0,0.0,0.0
288,0.0,0.0,0.951056516295,0.309016994375,0.0,0.0,0.0677187749774,0.0,0.0,0.0
289,0.0,0.0,0.951137384162,0.308767997774,0.0,0.0,-0.034906585039900004,0.0,0.0,0.0
290,0.0,0.0,0.950488616375,0.310759376593,0.0,0.0,-0.07888888219010001,0.0,0.0,0.0
291,0.0,0.0,0.9506782711239999,0.310178698193,0.0,0.0,0.08412486994610001,0.0,0.0,0.0
292,0.0,0.0,0.950624120249,0.310344618128,0.0,0.0,-0.0504400153826,0.0,0.0,0.0
293,0.0,0.0,0.9502714337929999,0.31142286704300004,0.0,0.0,0.010646508437200001,0.0,0.0,0.0
294,0.0,0.0,0.9505428396410001,0.310593480302,0.0,0.0,0.08237954069410001,0.0,0.0,0.0
295,0.0,0.0,0.950597033952,0.31042757455,0.0,0.0,-0.045378560551899996,0.0,0.0,0.0
296,0.0,0.0,0.950461493885,0.310842321189,0.0,0.0,-0.00226892802759,0.0,0.0,0.0
297,0.0,0.0,0.950407227189,0.311008203279,0.0,0.0,-0.0204203522483,0.0,0.0,0.0
298,0.0,0.0,0.9505428396410001,0.310593480302,0.0,0.0,0.0389208423195,0.0,0.0,0.0
299,0.0,0.0,0.950597033952,0.31042757455,0.0,0.0,0.011868238913600001,0.0,0.0,0.0
300,0.0,0.0,0.950298606946,0.311339939031,0.0,0.0,-0.00645771823238,0.0,0.0,0.0
301,0.0,0.0,0.9503529315420001,0.31117407589400004,0.0,0.0,0.0190240888467,0.0,0.0,0.0
302,0.0,0.0,0.9502170657760001,0.311588715952,0.0,0.0,0.00296705972839,0.0,0.0,0.0
303,0.0,0.0,0.950488616375,0.310759376593,0.0,0.0,-0.010646508437200001,0.0,0.0,0.0
304,0.0,0.0,0.950380082985,0.31109114077100003,0.0,0.0,-0.0380481776935,0.0,0.0,0.0
305,0.0,0.0,0.950407227189,0.311008203279,0.0,0.0,0.0179768912955,0.0,0.0,0.0
306,0.0,0.0,0.950407227189,0.311008203279,0.0,0.0,-0.010471975512,0.0,0.0,0.0
307,0.0,0.0,0.950407227189,0.311008203279,0.0,0.0,0.0335103216383,0.0,0.0,0.0
308,0.0,0.0,0.9502170657760001,0.311588715952,0.0,0.0,-0.039793506945500004,0.0,0.0,0.0
309,0.0,0.0,0.9501898709119999,0.311671636848,0.0,0.0,-0.0010471975512,0.0,0.0,0.0
310,0.0,0.0,0.950081019101,0.312003296688,0.0,0.0,-0.0301941960595,0.0,0.0,0.0
311,0.0,0.0,0.9500265497820001,0.312169112355,0.0,0.0,-0.009599310885969999,0.0,0.0,0.0
312,0.0,0.0,0.950162668813,0.31175455536999996,0.0,0.0,0.00157079632679,0.0,0.0,0.0
313,0.0,0.0,0.949999304271,0.312252016623,0.0,0.0,0.013089969390000001,0.0,0.0,0.0
314,0.0,0.0,0.9497810797480001,0.312915165105,0.0,0.0,-0.046774823953400005,0.0,0.0,0.0
315,0.0,0.0,0.949999304271,0.312252016623,0.0,0.0,0.020943951023900002,0.0,0.0,0.0
316,0.0,0.0,0.9498356792810001,0.31274939227,0.0,0.0,-0.00593411945678,0.0,0.0,0.0
317,0.0,0.0,0.9497810797480001,0.312915165105,0.0,0.0,-0.0441568300755,0.0,0.0,0.0
318,0.0,0.0,0.9498083831309999,0.312832279878,0.0,0.0,0.034906585039900004,0.0,0.0,0.0
319,0.0,0.0,0.9497264512829999,0.313080928408,0.0,0.0,-0.0132645023152,0.0,0.0,0.0
320,0.0,0.0,0.9497264512829999,0.313080928408,0.0,0.0,-0.0338593874887,0.0,0.0,0.0
321,0.0,0.0,0.9495350238410001,0.313661024833,0.0,0.0,-0.0275762021815,0.0,0.0,0.0
322,0.0,0.0,0.949753769132,0.31299804794799996,0.0,0.0,0.0165806278939,0.0,0.0,0.0
323,0.0,0.0,0.9495076481370001,0.31374388620099997,0.0,0.0,0.00296705972839,0.0,0.0,0.0
324,0.0,0.0,0.9495350238410001,0.313661024833,0.0,0.0,0.006981317007979999,0.0,0.0,0.0
325,0.0,0.0,0.94937066116,0.31415815719,0.0,0.0,-0.0181514242207,0.0,0.0,0.0
326,0.0,0.0,0.949425477642,0.31399245596700004,0.0,0.0,0.030717794835099996,0.0,0.0,0.0
327,0.0,0.0,0.9495076481370001,0.31374388620099997,0.0,0.0,-0.055850536063800006,0.0,0.0,0.0
328,0.0,0.0,0.94937066116,0.31415815719,0.0,0.0,-0.0338593874887,0.0,0.0,0.0
329,0.0,0.0,0.949425477642,0.31399245596700004,0.0,0.0,-0.0254818070791,0.0,0.0,0.0
330,0.0,0.0,0.9493432420739999,0.314241004213,0.0,0.0,-0.033684854563500004,0.0,0.0,0.0
331,0.0,0.0,0.949425477642,0.31399245596700004,0.0,0.0,0.00820304748437,0.0,0.0,0.0
332,0.0,0.0,0.9493432420739999,0.314241004213,0.0,0.0,0.0179768912955,0.0,0.0,0.0
333,0.0,0.0,0.949398073016,0.314075307775,0.0,0.0,0.0280998009571,0.0,0.0,0.0
334,0.0,0.0,0.9492609414390001,0.31448953092099996,0.0,0.0,-0.017453292519900004,0.0,0.0,0.0
335,0.0,0.0,0.949425477642,0.31399245596700004,0.0,0.0,-0.00558505360638,0.0,0.0,0.0
336,0.0,0.0,0.94937066116,0.31415815719,0.0,0.0,0.0198967534727,0.0,0.0,0.0
337,0.0,0.0,0.949206038203,0.314655203419,0.0,0.0,-0.0207694180987,0.0,0.0,0.0
338,0.0,0.0,0.9493158157580001,0.314323848843,0.0,0.0,0.00942477796077,0.0,0.0,0.0
339,0.0,0.0,0.9492609414390001,0.31448953092099996,0.0,0.0,0.0129154364648,0.0,0.0,0.0
340,0.0,0.0,0.94909614499,0.314986519655,0.0,0.0,-0.0436332312999,0.0,0.0,0.0
341,0.0,0.0,0.949178575742,0.314738036074,0.0,0.0,0.0157079632679,0.0,0.0,0.0
342,0.0,0.0,0.949068653617,0.315069342719,0.0,0.0,0.00610865238198,0.0,0.0,0.0
343,0.0,0.0,0.949013649188,0.315234981648,0.0,0.0,-0.039968039870699995,0.0,0.0,0.0
344,0.0,0.0,0.949068653617,0.315069342719,0.0,0.0,0.0277507351067,0.0,0.0,0.0
345,0.0,0.0,0.949013649188,0.315234981648,0.0,0.0,0.00226892802759,0.0,0.0,0.0
346,0.0,0.0,0.949068653617,0.315069342719,0.0,0.0,-0.0394444410951,0.0,0.0,0.0
347,0.0,0.0,0.948903553606,0.315566230692,0.0,0.0,-0.059515727493,0.0,0.0,0.0
348,0.0,0.0,0.949013649188,0.315234981648,0.0,0.0,0.0366519142919,0.0,0.0,0.0
349,0.0,0.0,0.9489310883419999,0.315483422034,0.0,0.0,0.0179768912955,0.0,0.0,0.0
350,0.0,0.0,0.949013649188,0.315234981648,0.0,0.0,0.0329867228627,0.0,0.0,0.0
351,0.0,0.0,0.948848462457,0.315731840798,0.0,0.0,-0.021118483949099997,0.0,0.0,0.0
352,0.0,0.0,0.9488760116439999,0.315649036947,0.0,0.0,0.0151843644924,0.0,0.0,0.0
353,0.0,0.0,0.948848462457,0.315731840798,0.0,0.0,-0.0300196631343,0.0,0.0,0.0
354,0.0,0.0,0.948793342403,0.315897441286,0.0,0.0,-0.00750491578358,0.0,0.0,0.0
355,0.0,0.0,0.9487657715379999,0.315980237922,0.0,0.0,-0.0370009801423,0.0,0.0,0.0
356,0.0,0.0,0.9486830155930001,0.316228613389,0.0,0.0,-0.0179768912955,0.0,0.0,0.0
357,0.0,0.0,0.9488209060430001,0.315814642245,0.0,0.0,0.00715584993318,0.0,0.0,0.0
358,0.0,0.0,0.948710608133,0.316145823974,0.0,0.0,0.0158824961931,0.0,0.0,0.0
359,0.0,0.0,0.9487657715379999,0.315980237922,0.0,0.0,0.0132645023152,0.0,0.0,0.0
360,0.0,0.0,0.948462015203,0.316890841959,0.0,0.0,-0.0020943951023900003,0.0,0.0,0.0
361,0.0,0.0,0.948517308642,0.31672529928300003,0.0,0.0,0.0226892802759,0.0,0.0,0.0
362,0.0,0.0,0.948462015203,0.316890841959,0.0,0.0,-0.022165681500300002,0.0,0.0,0.0
363,0.0,0.0,0.948600194626,0.31647696718199997,0.0,0.0,-0.00279252680319,0.0,0.0,0.0
364,0.0,0.0,0.948462015203,0.316890841959,0.0,0.0,0.0164060949687,0.0,0.0,0.0
365,0.0,0.0,0.948462015203,0.316890841959,0.0,0.0,-0.0207694180987,0.0,0.0,0.0
366,0.0,0.0,0.9484896655339999,0.31680807182799997,0.0,0.0,-0.000872664625997,0.0,0.0,0.0
367,0.0,0.0,0.948323655206,0.317304656405,0.0,0.0,0.0232128790515,0.0,0.0,0.0
368,0.0,0.0,0.948323655206,0.317304656405,0.0,0.0,-0.0345575191895,0.0,0.0,0.0
369,0.0,0.0,0.948212837214,0.31763566446999997,0.0,0.0,-0.0050614548307799994,0.0,0.0,0.0
370,0.0,0.0,0.9480463935969999,0.318132103987,0.0,0.0,0.0102974425868,0.0,0.0,0.0
371,0.0,0.0,0.948185114662,0.317718410441,0.0,0.0,-0.0312413936107,0.0,0.0,0.0
372,0.0,0.0,0.948018627724,0.318214835431,0.0,0.0,0.011344640138,0.0,0.0,0.0
373,0.0,0.0,0.947990854631,0.318297564451,0.0,0.0,-0.015533430342700001,0.0,0.0,0.0
374,0.0,0.0,0.9479074920370001,0.318545736966,0.0,0.0,0.0150098315672,0.0,0.0,0.0
375,0.0,0.0,0.9479074920370001,0.318545736966,0.0,0.0,-0.0167551608191,0.0,0.0,0.0
376,0.0,0.0,0.9479074920370001,0.318545736966,0.0,0.0,0.00593411945678,0.0,0.0,0.0
377,0.0,0.0,0.947990854631,0.318297564451,0.0,0.0,-0.0134390352404,0.0,0.0,0.0
378,0.0,0.0,0.9479074920370001,0.318545736966,0.0,0.0,-0.0151843644924,0.0,0.0,0.0
379,0.0,0.0,0.948018627724,0.318214835431,0.0,0.0,0.0012217304764,0.0,0.0,0.0
380,0.0,0.0,0.947935286788,0.318463015219,0.0,0.0,-0.0312413936107,0.0,0.0,0.0
381,0.0,0.0,0.947963074319,0.31838029104800003,0.0,0.0,0.00174532925199,0.0,0.0,0.0
382,0.0,0.0,0.947879690069,0.318628456287,0.0,0.0,-0.0312413936107,0.0,0.0,0.0
383,0.0,0.0,0.947824064475,0.318793887648,0.0,0.0,0.014311699866400001,0.0,0.0,0.0
384,0.0,0.0,0.947824064475,0.318793887648,0.0,0.0,-0.0188495559215,0.0,0.0,0.0
385,0.0,0.0,0.947824064475,0.318793887648,0.0,0.0,0.00418879020479,0.0,0.0,0.0
386,0.0,0.0,0.947712726673,0.319124721232,0.0,0.0,-0.0406661715715,0.0,0.0,0.0
387,0.0,0.0,0.947796240851,0.318876599687,0.0,0.0,0.0158824961931,0.0,0.0,0.0
388,0.0,0.0,0.947545503457,0.319620898688,0.0,0.0,-0.0293215314335,0.0,0.0,0.0
389,0.0,0.0,0.9474897046549999,0.31978627170699997,0.0,0.0,-0.0216420827247,0.0,0.0,0.0
390,0.0,0.0,0.947517607664,0.319703586415,0.0,0.0,0.0134390352404,0.0,0.0,0.0
391,0.0,0.0,0.9474897046549999,0.31978627170699997,0.0,0.0,0.00855211333477,0.0,0.0,0.0
392,0.0,0.0,0.947433876991,0.319951634986,0.0,0.0,-0.03403392041390001,0.0,0.0,0.0
393,0.0,0.0,0.947350081382,0.32019966162700003,0.0,0.0,0.0232128790515,0.0,0.0,0.0
394,0.0,0.0,0.947433876991,0.319951634986,0.0,0.0,-0.0274016692563,0.0,0.0,0.0
395,0.0,0.0,0.9474617944310001,0.31986895456500003,0.0,0.0,-0.00471238898038,0.0,0.0,0.0
396,0.0,0.0,0.9473221350830001,0.320282332298,0.0,0.0,0.007679448708779999,0.0,0.0,0.0
397,0.0,0.0,0.947266220842,0.320447666323,0.0,0.0,-0.0249582083035,0.0,0.0,0.0
398,0.0,0.0,0.947294181569,0.32036500053000005,0.0,0.0,-0.014660765716799999,0.0,0.0,0.0
399,0.0,0.0,0.947210277746,0.320612990586,0.0,0.0,-0.0301941960595,0.0,0.0,0.0
400,0.0,0.0,0.947210277746,0.320612990586,0.0,0.0,0.012391837689200002,0.0,0.0,0.0
401,0.0,0.0,0.947154305796,0.320778305082,0.0,0.0,-0.00942477796077,0.0,0.0,0.0
402,0.0,0.0,0.947182295378,0.320695649055,0.0,0.0,0.0157079632679,0.0,0.0,0.0
403,0.0,0.0,0.9469581767749999,0.321356828837,0.0,0.0,-0.03525565089030001,0.0,0.0,0.0
404,0.0,0.0,0.946930129495,0.321439465303,0.0,0.0,0.0050614548307799994,0.0,0.0,0.0
405,0.0,0.0,0.946986216842,0.321274189923,0.0,0.0,-0.0204203522483,0.0,0.0,0.0
406,0.0,0.0,0.946902075004,0.321522099322,0.0,0.0,-0.0406661715715,0.0,0.0,0.0
407,0.0,0.0,0.946705491672,0.322100468858,0.0,0.0,-0.017453292519900004,0.0,0.0,0.0
408,0.0,0.0,0.946621133524,0.322348304736,0.0,0.0,-0.028972465583099998,0.0,0.0,0.0
409,0.0,0.0,0.946902075004,0.321522099322,0.0,0.0,0.039968039870699995,0.0,0.0,0.0
410,0.0,0.0,0.946930129495,0.321439465303,0.0,0.0,-0.00296705972839,0.0,0.0,0.0
411,0.0,0.0,0.946649260116,0.322265695231,0.0,0.0,-0.0287979326579,0.0,0.0,0.0
412,0.0,0.0,0.946789784933,0.321852610905,0.0,0.0,0.0136135681656,0.0,0.0,0.0
413,0.0,0.0,0.946564858714,0.322513516381,0.0,0.0,-0.0207694180987,0.0,0.0,0.0
414,0.0,0.0,0.9465367104960001,0.322596118519,0.0,0.0,0.0443313630007,0.0,0.0,0.0
415,0.0,0.0,0.947712726673,0.319124721232,0.0,0.0,0.0582939970166,0.0,0.0,0.0
416,0.0,0.0,0.9474617944310001,0.31986895456500003,0.0,0.0,-0.07016223593019999,0.0,0.0,0.0
417,0.0,0.0,0.946986216842,0.321274189923,0.0,0.0,0.000698131700798,0.0,0.0,0.0
418,0.0,0.0,0.947154305796,0.320778305082,0.0,0.0,0.053407075111,0.0,0.0,0.0
419,0.0,0.0,0.946902075004,0.321522099322,0.0,0.0,-0.0483456202802,0.0,0.0,0.0
420,0.0,0.0,0.9468459443899999,0.321687360013,0.0,0.0,-0.0116937059884,0.0,0.0,0.0
421,0.0,0.0,0.9469581767749999,0.321356828837,0.0,0.0,0.025830872929500003,0.0,0.0,0.0
422,0.0,0.0,0.947098304995,0.320943609807,0.0,0.0,0.0286233997327,0.0,0.0,0.0
423,0.0,0.0,0.947098304995,0.320943609807,0.0,0.0,-0.026529004630299998,0.0,0.0,0.0
424,0.0,0.0,0.945177123049,0.3265581205,0.0,0.0,-0.30700341542599996,0.0,0.0,0.0
425,0.0,0.0,0.943048609499,0.332654956558,0.0,0.0,-0.21397736629500003,0.0,0.0,0.0
426,0.0,0.0,0.939811951086,0.34169210789099996,0.0,0.0,-0.313635666583,0.0,0.0,0.0
427,0.0,0.0,0.9388841471320001,0.34423329046499995,0.0,0.0,-0.28064894372099997,0.0,0.0,0.0
428,0.0,0.0,0.936885943988,0.349635135474,0.0,0.0,-0.150447381522,0.0,0.0,0.0
429,0.0,0.0,0.9348566617649999,0.355025382126,0.0,0.0,-0.222704012554,0.0,0.0,0.0
430,0.0,0.0,0.934111048518,0.35698256125100003,0.0,0.0,-0.232652389291,0.0,0.0,0.0
431,0.0,0.0,0.929390477022,0.369098010319,0.0,0.0,-0.6679375047380001,0.0,0.0,0.0
432,0.0,0.0,0.9217278269700001,0.387837353782,0.0,0.0,-0.560076156965,0.0,0.0,0.0
433,0.0,0.0,0.9197530075679999,0.39249764976400003,0.0,0.0,-0.539306738866,0.0,0.0,0.0
434,0.0,0.0,0.9129410466140001,0.408091466962,0.0,0.0,-0.526740368252,0.0,0.0,0.0
435,0.0,0.0,0.9068969898100001,0.4213524058,0.0,0.0,-0.5056218843029999,0.0,0.0,0.0
436,0.0,0.0,0.900546534449,0.434759633927,0.0,0.0,-0.45832346157399995,0.0,0.0,0.0
437,0.0,0.0,0.894427590455,0.44721279658999996,0.0,0.0,-0.540877535193,0.0,0.0,0.0
438,0.0,0.0,0.8857989397799999,0.464069217127,0.0,0.0,-0.6007423285360001,0.0,0.0,0.0
439,0.0,0.0,0.878233497535,0.478232081533,0.0,0.0,-0.557458163087,0.0,0.0,0.0
440,0.0,0.0,0.870054729134,0.492955138234,0.0,0.0,-0.47699848456999994,0.0,0.0,0.0
441,0.0,0.0,0.863747566902,0.503924737109,0.0,0.0,-0.466875574908,0.0,0.0,0.0
442,0.0,0.0,0.8549118706730001,0.5187732581610001,0.0,0.0,-0.568802803225,0.0,0.0,0.0
443,0.0,0.0,0.8521382089749999,0.5233167996589999,0.0,0.0,-0.579623844587,0.0,0.0,0.0
444,0.0,0.0,0.843906827753,0.5364897632500001,0.0,0.0,-0.540703002268,0.0,0.0,0.0
445,0.0,0.0,0.839762038498,0.5429546193720001,0.0,0.0,-0.548906049752,0.0,0.0,0.0
446,0.0,0.0,0.83171194639,0.555207383086,0.0,0.0,-0.522202512197,0.0,0.0,0.0
447,0.0,0.0,0.8233840587450001,0.567484530014,0.0,0.0,-0.472809694365,0.0,0.0,0.0
448,0.0,0.0,0.815178344443,0.579210036818,0.0,0.0,-0.565312144721,0.0,0.0,0.0
449,0.0,0.0,0.803856860617,0.594822786751,0.0,0.0,-0.588874089623,0.0,0.0,0.0
450,0.0,0.0,0.800679093229,0.599093473229,0.0,0.0,-0.575085988532,0.0,0.0,0.0
451,0.0,0.0,0.791223532967,0.611527040186,0.0,0.0,-0.548382450977,0.0,0.0,0.0
452,0.0,0.0,0.788118194802,0.6155239321270001,0.0,0.0,-0.534768882811,0.0,0.0,0.0
453,0.0,0.0,0.778462301567,0.627691361291,0.0,0.0,-0.45605453354599995,0.0,0.0,0.0
454,0.0,0.0,0.775716079622,0.63108205791,0.0,0.0,-0.471587963889,0.0,0.0,0.0
455,0.0,0.0,0.7647527435349999,0.6443238636399999,0.0,0.0,-0.589048622548,0.0,0.0,0.0
456,0.0,0.0,0.753563392302,0.6573752457940001,0.0,0.0,-0.618893752757,0.0,0.0,0.0
457,0.0,0.0,0.7498801825470001,0.6615736631870001,0.0,0.0,-0.600044196836,0.0,0.0,0.0
458,0.0,0.0,0.7376898937980001,0.675139704497,0.0,0.0,-0.52970742798,0.0,0.0,0.0
459,0.0,0.0,0.7345001938879999,0.6786084770899999,0.0,0.0,-0.50789081233,0.0,0.0,0.0
460,0.0,0.0,0.725494500501,0.6882279634990001,0.0,0.0,-0.45570546769599996,0.0,0.0,0.0
461,0.0,0.0,0.714350554462,0.699788028863,0.0,0.0,-0.543320996146,0.0,0.0,0.0
462,0.0,0.0,0.702774145499,0.711413030818,0.0,0.0,-0.587652359146,0.0,0.0,0.0
463,0.0,0.0,0.689493141399,0.724292211723,0.0,0.0,-0.556236432611,0.0,0.0,0.0
464,0.0,0.0,0.676618982095,0.7363333165549999,0.0,0.0,-0.510508806208,0.0,0.0,0.0
465,0.0,0.0,0.666662570204,0.745359656467,0.0,0.0,-0.483630735728,0.0,0.0,0.0
466,0.0,0.0,0.6530241527539999,0.757337082097,0.0,0.0,-0.60388392119,0.0,0.0,0.0
467,0.0,0.0,0.640109699485,0.7682835235940001,0.0,0.0,-0.601964059013,0.0,0.0,0.0
468,0.0,0.0,0.625106436011,0.780539520881,0.0,0.0,-0.585208898194,0.0,0.0,0.0
469,0.0,0.0,0.612493245459,0.7904758214309999,0.0,0.0,-0.545764457099,0.0,0.0,0.0
470,0.0,0.0,0.599791969344,0.800155980738,0.0,0.0,-0.479441945523,0.0,0.0,0.0
471,0.0,0.0,0.5884204714010001,0.808555099444,0.0,0.0,-0.549953247303,0.0,0.0,0.0
472,0.0,0.0,0.572074299514,0.8202018018970001,0.0,0.0,-0.634252650175,0.0,0.0,0.0
473,0.0,0.0,0.567340813743,0.823483090938,0.0,0.0,-0.611912435749,0.0,0.0,0.0
474,0.0,0.0,0.553900248593,0.832583037666,0.0,0.0,-0.5686282703,0.0,0.0,0.0
475,0.0,0.0,0.5438337182540001,0.839192997403,0.0,0.0,-0.147654854719,0.0,0.0,0.0
476,0.0,0.0,0.543027900367,0.839714653571,0.0,0.0,-0.0932005820565,0.0,0.0,0.0
477,0.0,0.0,0.539579232899,0.841934826114,0.0,0.0,-0.179070781255,0.0,0.0,0.0
478,0.0,0.0,0.537152400588,0.8434852094390001,0.0,0.0,-0.23509585024399998,0.0,0.0,0.0
479,0.0,0.0,0.5300672684759999,0.847955594881,0.0,0.0,-0.30037116426800003,0.0,0.0,0.0
480,0.0,0.0,0.527697266042,0.849432513748,0.0,0.0,-0.303512756922,0.0,0.0,0.0
481,0.0,0.0,0.519444544302,0.8545041634739999,0.0,0.0,-0.281696141272,0.0,0.0,0.0
482,0.0,0.0,0.517429726276,0.8557257027609999,0.0,0.0,-0.23509585024399998,0.0,0.0,0.0
483,0.0,0.0,0.517280366086,0.8558159982510001,0.0,0.0,0.0561996019142,0.0,0.0,0.0
484,0.0,0.0,0.517280366086,0.8558159982510001,0.0,0.0,0.0164060949687,0.0,0.0,0.0
485,0.0,0.0,0.517205680081,0.8558611362199999,0.0,0.0,-0.027227136331099997,0.0,0.0,0.0
486,0.0,0.0,0.516084917685,0.8565374234309999,0.0,0.0,0.0127409035396,0.0,0.0,0.0
487,0.0,0.0,0.516084917685,0.8565374234309999,0.0,0.0,-0.0333357887131,0.0,0.0,0.0
488,0.0,0.0,0.515112874907,0.857122351887,0.0,0.0,-0.029496064358700003,0.0,0.0,0.0
489,0.0,0.0,0.51488846315,0.857257178748,0.0,0.0,-0.0219911485751,0.0,0.0,0.0
490,0.0,0.0,0.514738835705,0.8573470306800001,0.0,0.0,0.00855211333477,0.0,0.0,0.0
491,0.0,0.0,0.5146640161029999,0.8573919468529999,0.0,0.0,-0.00488692190558,0.0,0.0,0.0
492,0.0,0.0,0.513990463377,0.8577958985430001,0.0,0.0,-0.0483456202802,0.0,0.0,0.0
493,0.0,0.0,0.5130918999499999,0.85833367766,0.0,0.0,-0.009599310885969999,0.0,0.0,0.0
494,0.0,0.0,0.512792253721,0.858512728225,0.0,0.0,-0.0171042266695,0.0,0.0,0.0
495,0.0,0.0,0.512417608074,0.858736394323,0.0,0.0,-0.0305432619099,0.0,0.0,0.0
496,0.0,0.0,0.5120428648709999,0.858959896931,0.0,0.0,0.0125663706144,0.0,0.0,0.0
497,0.0,0.0,0.512117821312,0.858915209491,0.0,0.0,-0.0019198621771900001,0.0,0.0,0.0
498,0.0,0.0,0.511593044351,0.859227884191,0.0,0.0,-0.00488692190558,0.0,0.0,0.0
499,0.0,0.0,0.5109930655039999,0.8595848340960001,0.0,0.0,-0.0438077642251,0.0,0.0,0.0
500,0.0,0.0,0.510768009211,0.859718582308,0.0,0.0,-0.0136135681656,0.0,0.0,0.0
501,0.0,0.0,0.510617952234,0.859807715048,0.0,0.0,-0.0469493568786,0.0,0.0,0.0
502,0.0,0.0,0.5089662999,0.86078644597,0.0,0.0,-0.0164060949687,0.0,0.0,0.0
503,0.0,0.0,0.5088911801739999,0.860830858381,0.0,0.0,-0.00715584993318,0.0,0.0,0.0
504,0.0,0.0,0.5085906625209999,0.861008442465,0.0,0.0,-0.0010471975512,0.0,0.0,0.0
505,0.0,0.0,0.508515523424,0.861052822095,0.0,0.0,-0.03403392041390001,0.0,0.0,0.0
506,0.0,0.0,0.508214928314,0.861230275036,0.0,0.0,-0.035081117965099995,0.0,0.0,0.0
507,0.0,0.0,0.507688737887,0.8615405651629999,0.0,0.0,-0.004363323129989999,0.0,0.0,0.0
508,0.0,0.0,0.507538362961,0.861629160442,0.0,0.0,0.00418879020479,0.0,0.0,0.0
509,0.0,0.0,0.507538362961,0.861629160442,0.0,0.0,-0.0127409035396,0.0,0.0,0.0
510,0.0,0.0,0.506334807353,0.8623369775570001,0.0,0.0,-0.03525565089030001,0.0,0.0,0.0
511,0.0,0.0,0.506109030711,0.862469506147,0.0,0.0,-0.0240855436775,0.0,0.0,0.0
512,0.0,0.0,0.505883219381,0.862601975623,0.0,0.0,-0.015358897417600001,0.0,0.0,0.0
513,0.0,0.0,0.505582083675,0.8627785096230001,0.0,0.0,-0.0185004900711,0.0,0.0,0.0
514,0.0,0.0,0.5044522764180001,0.86343957566,0.0,0.0,-0.00593411945678,0.0,0.0,0.0
515,0.0,0.0,0.5048289749729999,0.8632193846449999,0.0,0.0,-0.0050614548307799994,0.0,0.0,0.0
516,0.0,0.0,0.504602967369,0.863351518978,0.0,0.0,-0.0286233997327,0.0,0.0,0.0
517,0.0,0.0,0.503246196003,0.8641430820229999,0.0,0.0,-0.030892327760299997,0.0,0.0,0.0
518,0.0,0.0,0.5036232016359999,0.863923417193,0.0,0.0,0.0,0.0,0.0,0.0
519,0.0,0.0,0.503849358996,0.863791539342,0.0,0.0,0.014311699866400001,0.0,0.0,0.0
520,0.0,0.0,0.50256734447,0.8645380640970001,0.0,0.0,-0.0376991118431,0.0,0.0,0.0
521,0.0,0.0,0.502491897378,0.864581918079,0.0,0.0,-0.00314159265359,0.0,0.0,0.0
522,0.0,0.0,0.502265533143,0.86471344052,0.0,0.0,0.00296705972839,0.0,0.0,0.0
523,0.0,0.0,0.5021146045279999,0.8648010892219999,0.0,0.0,-0.027227136331099997,0.0,0.0,0.0
524,0.0,0.0,0.500982152693,0.8654576146080001,0.0,0.0,-0.0191986217719,0.0,0.0,0.0
525,0.0,0.0,0.5010576762100001,0.8654138923729999,0.0,0.0,-0.013788101090799998,0.0,0.0,0.0
526,0.0,0.0,0.500982152693,0.8654576146080001,0.0,0.0,-0.0165806278939,0.0,0.0,0.0
527,0.0,0.0,0.500755559253,0.865588741769,0.0,0.0,-0.0324631240871,0.0,0.0,0.0
528,0.0,0.0,0.498941577478,0.866635622545,0.0,0.0,-0.0528834763354,0.0,0.0,0.0
529,0.0,0.0,0.498790313429,0.866722691078,0.0,0.0,-0.00593411945678,0.0,0.0,0.0
530,0.0,0.0,0.499168445052,0.866504970248,0.0,0.0,0.021816615649900003,0.0,0.0,0.0
531,0.0,0.0,0.499319671096,0.866417835722,0.0,0.0,0.0190240888467,0.0,0.0,0.0
532,0.0,0.0,0.498487739754,0.866896748936,0.0,0.0,-0.0710349005562,0.0,0.0,0.0
533,0.0,0.0,0.497352547815,0.867548524973,0.0,0.0,-0.00174532925199,0.0,0.0,0.0
534,0.0,0.0,0.49750395601999997,0.867461707365,0.0,0.0,0.0242600766027,0.0,0.0,0.0
535,0.0,0.0,0.498033765367,0.867157637662,0.0,0.0,-0.0033161255787899995,0.0,0.0,0.0
536,0.0,0.0,0.49727683803000006,0.867591923867,0.0,0.0,-0.024609142453099996,0.0,0.0,0.0
537,0.0,0.0,0.49727683803000006,0.867591923867,0.0,0.0,0.010821041362399999,0.0,0.0,0.0
538,0.0,0.0,0.49727683803000006,0.867591923867,0.0,0.0,0.00610865238198,0.0,0.0,0.0
539,0.0,0.0,0.49727683803000006,0.867591923867,0.0,0.0,-0.0101229096616,0.0,0.0,0.0
540,0.0,0.0,0.495686058649,0.8685017738959999,0.0,0.0,-0.0518362787842,0.0,0.0,0.0
541,0.0,0.0,0.495382864146,0.868674748056,0.0,0.0,-0.0216420827247,0.0,0.0,0.0
542,0.0,0.0,0.495003786139,0.868890816908,0.0,0.0,0.0050614548307799994,0.0,0.0,0.0
543,0.0,0.0,0.49432120828599996,0.8692793239450001,0.0,0.0,-0.0256563400043,0.0,0.0,0.0
544,0.0,0.0,0.49401774244999996,0.869451821635,0.0,0.0,-0.0298451302091,0.0,0.0,0.0
545,0.0,0.0,0.49356243084299994,0.869710369526,0.0,0.0,0.006632251157579999,0.0,0.0,0.0
546,0.0,0.0,0.492955138234,0.870054729134,0.0,0.0,-0.0322885911619,0.0,0.0,0.0
547,0.0,0.0,0.49310698392200003,0.8699686789799999,0.0,0.0,0.00226892802759,0.0,0.0,0.0
548,0.0,0.0,0.492195684643,0.870484582298,0.0,0.0,-0.014835298642,0.0,0.0,0.0
549,0.0,0.0,0.491435856222,0.870913772551,0.0,0.0,-0.07731808586330001,0.0,0.0,0.0
550,0.0,0.0,0.490371467824,0.8715135245899999,0.0,0.0,0.0033161255787899995,0.0,0.0,0.0
551,0.0,0.0,0.490371467824,0.8715135245899999,0.0,0.0,0.00244346095279,0.0,0.0,0.0
552,0.0,0.0,0.48976291715400005,0.871855656047,0.0,0.0,-0.0427605666739,0.0,0.0,0.0
553,0.0,0.0,0.489382451749,0.872069272432,0.0,0.0,-0.042935099599099996,0.0,0.0,0.0
554,0.0,0.0,0.489154127779,0.872197362572,0.0,0.0,0.00715584993318,0.0,0.0,0.0
555,0.0,0.0,0.489078012338,0.8722400460009999,0.0,0.0,-0.0158824961931,0.0,0.0,0.0
556,0.0,0.0,0.489078012338,0.8722400460009999,0.0,0.0,0.00855211333477,0.0,0.0,0.0
557,0.0,0.0,0.48816433669799997,0.872751728945,0.0,0.0,-0.0280998009571,0.0,0.0,0.0
558,0.0,0.0,0.488088172883,0.872794325997,0.0,0.0,-0.012217304764,0.0,0.0,0.0
559,0.0,0.0,0.487783480459,0.8729646477330001,0.0,0.0,0.0129154364648,0.0,0.0,0.0
560,0.0,0.0,0.487783480459,0.8729646477330001,0.0,0.0,-0.013962634016,0.0,0.0,0.0
561,0.0,0.0,0.48686904672799997,0.873474974649,0.0,0.0,-0.007853981633970001,0.0,0.0,0.0
562,0.0,0.0,0.48686904672799997,0.873474974649,0.0,0.0,0.00453785605519,0.0,0.0,0.0
563,0.0,0.0,0.48664035483199997,0.8736024067329999,0.0,0.0,-0.012042771838799999,0.0,0.0,0.0
564,0.0,0.0,0.48664035483199997,0.8736024067329999,0.0,0.0,0.000349065850399,0.0,0.0,0.0
565,0.0,0.0,0.486335380423,0.873772223035,0.0,0.0,-0.0521853446346,0.0,0.0,0.0
566,0.0,0.0,0.486335380423,0.873772223035,0.0,0.0,0.0193731546971,0.0,0.0,0.0
567,0.0,0.0,0.486182870995,0.873857091263,0.0,0.0,-0.0287979326579,0.0,0.0,0.0
568,0.0,0.0,0.484885943368,0.874577396189,0.0,0.0,-0.0005235987755980001,0.0,0.0,0.0
569,0.0,0.0,0.484885943368,0.874577396189,0.0,0.0,0.0,0.0,0.0,0.0
570,0.0,0.0,0.483893454972,0.8751269189299999,0.0,0.0,-0.0343829862643,0.0,0.0,0.0
571,0.0,0.0,0.484046186062,0.8750424502609999,0.0,0.0,-0.0101229096616,0.0,0.0,0.0
572,0.0,0.0,0.484427949268,0.8748311619779999,0.0,0.0,0.0183259571459,0.0,0.0,0.0
573,0.0,0.0,0.483053170619,0.875591020029,0.0,0.0,-0.06143558967019999,0.0,0.0,0.0
574,0.0,0.0,0.482594646038,0.8758438260420001,0.0,0.0,0.0,0.0,0.0,0.0
575,0.0,0.0,0.483053170619,0.875591020029,0.0,0.0,0.0195476876223,0.0,0.0,0.0
576,0.0,0.0,0.48205953348200004,0.876138462904,0.0,0.0,-0.0418879020479,0.0,0.0,0.0
577,0.0,0.0,0.48160072239699997,0.876390748574,0.0,0.0,-0.0132645023152,0.0,0.0,0.0
578,0.0,0.0,0.481906611132,0.8762225848190001,0.0,0.0,0.0111701072128,0.0,0.0,0.0
579,0.0,0.0,0.481141779278,0.8766427939779999,0.0,0.0,-0.0382227106187,0.0,0.0,0.0
580,0.0,0.0,0.480835743909,0.876810690731,0.0,0.0,-0.0205948851735,0.0,0.0,0.0
581,0.0,0.0,0.480453117312,0.8770204114299999,0.0,0.0,0.015358897417600001,0.0,0.0,0.0
582,0.0,0.0,0.47999384466000006,0.877271855862,0.0,0.0,-0.0251327412287,0.0,0.0,0.0
583,0.0,0.0,0.479917286421,0.877313739887,0.0,0.0,-0.005759586531579999,0.0,0.0,0.0
584,0.0,0.0,0.47922809787299997,0.8776903954180001,0.0,0.0,-0.014660765716799999,0.0,0.0,0.0
585,0.0,0.0,0.47907490470299996,0.877774023131,0.0,0.0,-0.014137166941200001,0.0,0.0,0.0
586,0.0,0.0,0.478385354909,0.8781500169149999,0.0,0.0,-0.0197222205475,0.0,0.0,0.0
587,0.0,0.0,0.478461986133,0.878108266574,0.0,0.0,-0.030717794835099996,0.0,0.0,0.0
588,0.0,0.0,0.47807879358800004,0.878316951403,0.0,0.0,-0.0513126800086,0.0,0.0,0.0
589,0.0,0.0,0.477465496226,0.878650499296,0.0,0.0,-0.020943951023900002,0.0,0.0,0.0
590,0.0,0.0,0.476928670128,0.8789420024150001,0.0,0.0,-0.0497418836818,0.0,0.0,0.0
591,0.0,0.0,0.47677525854599995,0.879025228784,0.0,0.0,-0.0020943951023900003,0.0,0.0,0.0
592,0.0,0.0,0.47677525854599995,0.879025228784,0.0,0.0,-0.00366519142919,0.0,0.0,0.0
593,0.0,0.0,0.47639166606100003,0.879233177551,0.0,0.0,-0.021816615649900003,0.0,0.0,0.0
594,0.0,0.0,0.476314936678,0.879274747219,0.0,0.0,-0.00523598775598,0.0,0.0,0.0
595,0.0,0.0,0.475931235364,0.8794824951100001,0.0,0.0,-0.0286233997327,0.0,0.0,0.0
596,0.0,0.0,0.475854484226,0.879524024596,0.0,0.0,0.00261799387799,0.0,0.0,0.0
597,0.0,0.0,0.47570097107799997,0.879607063475,0.0,0.0,0.00523598775598,0.0,0.0,0.0
598,0.0,0.0,0.474933188073,0.880021855903,0.0,0.0,-0.0335103216383,0.0,0.0,0.0
599,0.0,0.0,0.47477958805200005,0.880104733977,0.0,0.0,-0.013962634016,0.0,0.0,0.0
600,0.0,0.0,0.47462597356700004,0.8801875852429999,0.0,0.0,-0.00942477796077,0.0,0.0,0.0
601,0.0,0.0,0.47378083559399997,0.880642787868,0.0,0.0,-0.0280998009571,0.0,0.0,0.0
602,0.0,0.0,0.473703983209,0.880684129692,0.0,0.0,0.00174532925199,0.0,0.0,0.0
603,0.0,0.0,0.473550267618,0.8807667932200001,0.0,0.0,-0.0033161255787899995,0.0,0.0,0.0
604,0.0,0.0,0.473089034311,0.881014622815,0.0,0.0,-0.032637657012299995,0.0,0.0,0.0
605,0.0,0.0,0.47301214948,0.881055904267,0.0,0.0,0.00715584993318,0.0,0.0,0.0
606,0.0,0.0,0.472781473377,0.8811797083640001,0.0,0.0,-0.014137166941200001,0.0,0.0,0.0
607,0.0,0.0,0.472473854835,0.881344686543,0.0,0.0,-0.0251327412287,0.0,0.0,0.0
608,0.0,0.0,0.472243103147,0.881468349704,0.0,0.0,-0.0286233997327,0.0,0.0,0.0
609,0.0,0.0,0.472012319092,0.8815919524510001,0.0,0.0,0.0109955742876,0.0,0.0,0.0
610,0.0,0.0,0.47124280534900004,0.882003525167,0.0,0.0,-0.027052603405900003,0.0,0.0,0.0
611,0.0,0.0,0.47124280534900004,0.882003525167,0.0,0.0,0.00872664625997,0.0,0.0,0.0
612,0.0,0.0,0.470703932165,0.882291226435,0.0,0.0,-0.045553093477099994,0.0,0.0,0.0
613,0.0,0.0,0.470549936128,0.882373366331,0.0,0.0,0.005759586531579999,0.0,0.0,0.0
614,0.0,0.0,0.470780924807,0.882250146408,0.0,0.0,-0.0181514242207,0.0,0.0,0.0
615,0.0,0.0,0.470626935939,0.882332299742,0.0,0.0,-0.015358897417600001,0.0,0.0,0.0
616,0.0,0.0,0.470164883336,0.88257859847,0.0,0.0,-0.058643062867,0.0,0.0,0.0
617,0.0,0.0,0.46977974103,0.8827836625799999,0.0,0.0,-0.0476474885794,0.0,0.0,0.0
618,0.0,0.0,0.469702701834,0.8828246552339999,0.0,0.0,0.00855211333477,0.0,0.0,0.0
619,0.0,0.0,0.469856776649,0.882742663202,0.0,0.0,0.0185004900711,0.0,0.0,0.0
620,0.0,0.0,0.469856776649,0.882742663202,0.0,0.0,-0.0019198621771900001,0.0,0.0,0.0
621,0.0,0.0,0.46885503472400003,0.883275130644,0.0,0.0,-0.015358897417600001,0.0,0.0,0.0
622,0.0,0.0,0.46885503472400003,0.883275130644,0.0,0.0,0.008028514559169999,0.0,0.0,0.0
623,0.0,0.0,0.46885503472400003,0.883275130644,0.0,0.0,-0.00488692190558,0.0,0.0,0.0
624,0.0,0.0,0.46862377777099995,0.883397846334,0.0,0.0,-0.0312413936107,0.0,0.0,0.0
625,0.0,0.0,0.467929814261,0.883765630089,0.0,0.0,0.0005235987755980001,0.0,0.0,0.0
626,0.0,0.0,0.467852689379,0.883806461303,0.0,0.0,-0.014311699866400001,0.0,0.0,0.0
627,0.0,0.0,0.467852689379,0.883806461303,0.0,0.0,-0.0158824961931,0.0,0.0,0.0
628,0.0,0.0,0.46692691305699996,0.8842959108030001,0.0,0.0,-0.0169296937443,0.0,0.0,0.0
629,0.0,0.0,0.466541021741,0.8844995619179999,0.0,0.0,-0.0212930168743,0.0,0.0,0.0
630,0.0,0.0,0.466463832817,0.884540271935,0.0,0.0,-0.00680678408278,0.0,0.0,0.0
631,0.0,0.0,0.465614520325,0.884987637463,0.0,0.0,-0.0254818070791,0.0,0.0,0.0
632,0.0,0.0,0.465460053753,0.885068889048,0.0,0.0,0.0,0.0,0.0,0.0
633,0.0,0.0,0.466000624692,0.884784390564,0.0,0.0,0.0162315620435,0.0,0.0,0.0
634,0.0,0.0,0.465614520325,0.884987637463,0.0,0.0,-0.0509636141582,0.0,0.0,0.0
635,0.0,0.0,0.464301102841,0.885677416389,0.0,0.0,-0.0198967534727,0.0,0.0,0.0
636,0.0,0.0,0.464378391008,0.8856368951010001,0.0,0.0,0.0134390352404,0.0,0.0,0.0
637,0.0,0.0,0.46445567563900003,0.88559636707,0.0,0.0,0.014835298642,0.0,0.0,0.0
638,0.0,0.0,0.4637599867,0.8859608765270001,0.0,0.0,-0.0532325421858,0.0,0.0,0.0
639,0.0,0.0,0.463141356361,0.886284426145,0.0,0.0,-0.00733038285838,0.0,0.0,0.0
640,0.0,0.0,0.46329603511999995,0.8862035792309999,0.0,0.0,0.0317649923863,0.0,0.0,0.0
641,0.0,0.0,0.46399191482,0.8858394340860001,0.0,0.0,0.0134390352404,0.0,0.0,0.0
642,0.0,0.0,0.46306401169100003,0.886324839478,0.0,0.0,-0.0443313630007,0.0,0.0,0.0
643,0.0,0.0,0.462831956524,0.886446038978,0.0,0.0,-0.0237364778271,0.0,0.0,0.0
644,0.0,0.0,0.462599869636,0.886567177721,0.0,0.0,0.0033161255787899995,0.0,0.0,0.0
645,0.0,0.0,0.462677235456,0.886526804891,0.0,0.0,0.013962634016,0.0,0.0,0.0
646,0.0,0.0,0.462367751041,0.886688255701,0.0,0.0,-0.0401425727959,0.0,0.0,0.0
647,0.0,0.0,0.461748613235,0.887010833178,0.0,0.0,-0.00872664625997,0.0,0.0,0.0
648,0.0,0.0,0.46213560075599996,0.8868092729070001,0.0,0.0,0.0178023583703,0.0,0.0,0.0
649,0.0,0.0,0.461826017774,0.886970534633,0.0,0.0,-0.0436332312999,0.0,0.0,0.0
650,0.0,0.0,0.461051814212,0.887373216077,0.0,0.0,-0.0240855436775,0.0,0.0,0.0
651,0.0,0.0,0.46143895991899997,0.887171959808,0.0,0.0,0.0183259571459,0.0,0.0,0.0
652,0.0,0.0,0.46159379360799996,0.887091410004,0.0,0.0,-0.004014257279590001,0.0,0.0,0.0
653,0.0,0.0,0.460896931348,0.887453671283,0.0,0.0,-0.00942477796077,0.0,0.0,0.0
654,0.0,0.0,0.461206683033,0.8872927338400001,0.0,0.0,0.006632251157579999,0.0,0.0,0.0
655,0.0,0.0,0.461051814212,0.887373216077,0.0,0.0,-0.009599310885969999,0.0,0.0,0.0
656,0.0,0.0,0.46035473078999994,0.8877350516,0.0,0.0,-0.027052603405900003,0.0,0.0,0.0
657,0.0,0.0,0.460199784784,0.8878153851360001,0.0,0.0,-0.006632251157579999,0.0,0.0,0.0
658,0.0,0.0,0.460509662773,0.887654691022,0.0,0.0,0.0165806278939,0.0,0.0,0.0
659,0.0,0.0,0.46035473078999994,0.8877350516,0.0,0.0,-0.0322885911619,0.0,0.0,0.0
660,0.0,0.0,0.460044824759,0.887895691628,0.0,0.0,-0.0390953752447,0.0,0.0,0.0
661,0.0,0.0,0.459657363398,0.8880963395229999,0.0,0.0,0.00226892802759,0.0,0.0,0.0
662,0.0,0.0,0.459812358448,0.8880161006530001,0.0,0.0,0.013089969390000001,0.0,0.0,0.0
663,0.0,0.0,0.45988985072099997,0.887975971074,0.0,0.0,0.006632251157579999,0.0,0.0,0.0
664,0.0,0.0,0.45950235434500003,0.8881765513400001,0.0,0.0,-0.042411500823499995,0.0,0.0,0.0
665,0.0,0.0,0.459579860621,0.888136448814,0.0,0.0,0.0109955742876,0.0,0.0,0.0
666,0.0,0.0,0.45950235434500003,0.8881765513400001,0.0,0.0,-0.015533430342700001,0.0,0.0,0.0
667,0.0,0.0,0.459347331296,0.8882567361020001,0.0,0.0,-0.0034906585039899997,0.0,0.0,0.0
668,0.0,0.0,0.459269814524,0.888296818337,0.0,0.0,-0.0190240888467,0.0,0.0,0.0
669,0.0,0.0,0.458804640463,0.888537169673,0.0,0.0,0.0197222205475,0.0,0.0,0.0
670,0.0,0.0,0.458804640463,0.888537169673,0.0,0.0,-0.0312413936107,0.0,0.0,0.0
671,0.0,0.0,0.458494454534,0.8886972685690001,0.0,0.0,-0.0207694180987,0.0,0.0,0.0
672,0.0,0.0,0.457796331992,0.8890570951369999,0.0,0.0,-0.00453785605519,0.0,0.0,0.0
673,0.0,0.0,0.457873915117,0.889017141486,0.0,0.0,-0.0207694180987,0.0,0.0,0.0
674,0.0,0.0,0.457873915117,0.889017141486,0.0,0.0,0.0013962634016,0.0,0.0,0.0
675,0.0,0.0,0.457020309098,0.889456259224,0.0,0.0,-0.0160570291183,0.0,0.0,0.0
676,0.0,0.0,0.45686506273500005,0.889536010768,0.0,0.0,-0.0317649923863,0.0,0.0,0.0
677,0.0,0.0,0.45694268765600005,0.889496138383,0.0,0.0,0.010471975512,0.0,0.0,0.0
678,0.0,0.0,0.45647688595200003,0.889735271073,0.0,0.0,-0.005410520681180001,0.0,0.0,0.0
679,0.0,0.0,0.45624393816200004,0.88985474595,0.0,0.0,-0.029496064358700003,0.0,0.0,0.0
680,0.0,0.0,0.455933292469,0.890013950912,0.0,0.0,-0.0125663706144,0.0,0.0,0.0
681,0.0,0.0,0.456166281949,0.889894557357,0.0,0.0,-0.0202458193231,0.0,0.0,0.0
682,0.0,0.0,0.45507873047499997,0.8904512053270001,0.0,0.0,-0.00680678408278,0.0,0.0,0.0
683,0.0,0.0,0.45500102221600003,0.890490915048,0.0,0.0,-0.00471238898038,0.0,0.0,0.0
684,0.0,0.0,0.45484559530199997,0.890570314144,0.0,0.0,0.015533430342700001,0.0,0.0,0.0
685,0.0,0.0,0.45484559530199997,0.890570314144,0.0,0.0,-0.041713369122699996,0.0,0.0,0.0
686,0.0,0.0,0.454456967411,0.8907686931919999,0.0,0.0,-0.0497418836818,0.0,0.0,0.0
687,0.0,0.0,0.45414600279899997,0.8909272743279999,0.0,0.0,0.012391837689200002,0.0,0.0,0.0
688,0.0,0.0,0.45414600279899997,0.8909272743279999,0.0,0.0,-0.010646508437200001,0.0,0.0,0.0
689,0.0,0.0,0.454379231448,0.890808348652,0.0,0.0,0.00942477796077,0.0,0.0,0.0
690,0.0,0.0,0.454223749141,0.8908876392209999,0.0,0.0,-0.030717794835099996,0.0,0.0,0.0
691,0.0,0.0,0.453757219222,0.8911253480879999,0.0,0.0,0.017453292519900004,0.0,0.0,0.0
692,0.0,0.0,0.453757219222,0.8911253480879999,0.0,0.0,-0.011344640138,0.0,0.0,0.0
693,0.0,0.0,0.45313498583899997,0.891441913199,0.0,0.0,0.014835298642,0.0,0.0,0.0
694,0.0,0.0,0.45259035045199997,0.891718551269,0.0,0.0,-0.0485201532054,0.0,0.0,0.0
695,0.0,0.0,0.45227905438999993,0.891876480775,0.0,0.0,-0.005410520681180001,0.0,0.0,0.0
696,0.0,0.0,0.45227905438999993,0.891876480775,0.0,0.0,0.010646508437200001,0.0,0.0,0.0
697,0.0,0.0,0.452123385691,0.891955404777,0.0,0.0,-0.0333357887131,0.0,0.0,0.0
698,0.0,0.0,0.45196770321999996,0.892034301609,0.0,0.0,0.007679448708779999,0.0,0.0,0.0
699,0.0,0.0,0.45157843681800003,0.8922314248000001,0.0,0.0,-0.00418879020479,0.0,0.0,0.0
700,0.0,0.0,0.451266961791,0.8923890010500001,0.0,0.0,-0.0301941960595,0.0,0.0,0.0
701,0.0,0.0,0.45103331943499997,0.8925071118819999,0.0,0.0,0.00837758040957,0.0,0.0,0.0
702,0.0,0.0,0.451266961791,0.8923890010500001,0.0,0.0,0.0125663706144,0.0,0.0,0.0
703,0.0,0.0,0.45142270618,0.892310226516,0.0,0.0,0.0005235987755980001,0.0,0.0,0.0
704,0.0,0.0,0.451266961791,0.8923890010500001,0.0,0.0,-0.0116937059884,0.0,0.0,0.0
705,0.0,0.0,0.450877540689,0.892585818452,0.0,0.0,-0.0101229096616,0.0,0.0,0.0
706,0.0,0.0,0.450799646166,0.892625161541,0.0,0.0,-0.00750491578358,0.0,0.0,0.0
707,0.0,0.0,0.450799646166,0.892625161541,0.0,0.0,-0.00174532925199,0.0,0.0,0.0
708,0.0,0.0,0.450565941999,0.8927431500220001,0.0,0.0,-0.0212930168743,0.0,0.0,0.0
709,0.0,0.0,0.450332206951,0.892861077314,0.0,0.0,-0.029670597283900004,0.0,0.0,0.0
710,0.0,0.0,0.449864644275,0.8930967483040001,0.0,0.0,-0.0132645023152,0.0,0.0,0.0
711,0.0,0.0,0.448461216762,0.893802291931,0.0,0.0,-0.050090949532199995,0.0,0.0,0.0
712,0.0,0.0,0.448227204503,0.893919668171,0.0,0.0,-0.017278759594700002,0.0,0.0,0.0
713,0.0,0.0,0.44830521200400003,0.893880549565,0.0,0.0,0.00645771823238,0.0,0.0,0.0
714,0.0,0.0,0.44830521200400003,0.893880549565,0.0,0.0,-0.008028514559169999,0.0,0.0,0.0
715,0.0,0.0,0.448149193589,0.8939587799700001,0.0,0.0,-0.021816615649900003,0.0,0.0,0.0
716,0.0,0.0,0.44760302166500004,0.894232371924,0.0,0.0,-0.00715584993318,0.0,0.0,0.0
717,0.0,0.0,0.447681056457,0.894193307786,0.0,0.0,0.014660765716799999,0.0,0.0,0.0
718,0.0,0.0,0.447759087839,0.894154236839,0.0,0.0,-0.0134390352404,0.0,0.0,0.0
719,0.0,0.0,0.447524983465,0.894271429251,0.0,0.0,-0.0179768912955,0.0,0.0,0.0
720,0.0,0.0,0.447056682715,0.8945056301890001,0.0,0.0,0.00418879020479,0.0,0.0,0.0
721,0.0,0.0,0.447056682715,0.8945056301890001,0.0,0.0,-0.010821041362399999,0.0,0.0,0.0
722,0.0,0.0,0.446588259403,0.8947395858930001,0.0,0.0,-0.0394444410951,0.0,0.0,0.0
723,0.0,0.0,0.446275909167,0.89489542009,0.0,0.0,-0.0010471975512,0.0,0.0,0.0
724,0.0,0.0,0.446432091084,0.89481751662,0.0,0.0,-0.00174532925199,0.0,0.0,0.0
725,0.0,0.0,0.44635400182499996,0.894856471762,0.0,0.0,-0.0207694180987,0.0,0.0,0.0
726,0.0,0.0,0.445729165431,0.895167867544,0.0,0.0,-0.00157079632679,0.0,0.0,0.0
727,0.0,0.0,0.44604161080300003,0.895012224181,0.0,0.0,0.012391837689200002,0.0,0.0,0.0
728,0.0,0.0,0.445572922377,0.895245648325,0.0,0.0,-0.014311699866400001,0.0,0.0,0.0
729,0.0,0.0,0.44549479575900003,0.8952845284890001,0.0,0.0,-0.012217304764,0.0,0.0,0.0
730,0.0,0.0,0.445104111795,0.895478827032,0.0,0.0,0.0190240888467,0.0,0.0,0.0
731,0.0,0.0,0.445338532347,0.895362268362,0.0,0.0,-0.0167551608191,0.0,0.0,0.0
732,0.0,0.0,0.445338532347,0.895362268362,0.0,0.0,0.004363323129989999,0.0,0.0,0.0
733,0.0,0.0,0.445104111795,0.895478827032,0.0,0.0,-0.0277507351067,0.0,0.0,0.0
734,0.0,0.0,0.444869660735,0.895595324327,0.0,0.0,-0.0101229096616,0.0,0.0,0.0
735,0.0,0.0,0.44518225536899997,0.895439980961,0.0,0.0,0.010471975512,0.0,0.0,0.0
736,0.0,0.0,0.445104111795,0.895478827032,0.0,0.0,-0.014660765716799999,0.0,0.0,0.0
737,0.0,0.0,0.444947814477,0.8955564987160001,0.0,0.0,-0.028972465583099998,0.0,0.0,0.0
738,0.0,0.0,0.444635179185,0.895711760239,0.0,0.0,-0.032637657012299995,0.0,0.0,0.0
739,0.0,0.0,0.444947814477,0.8955564987160001,0.0,0.0,0.014311699866400001,0.0,0.0,0.0
740,0.0,0.0,0.444869660735,0.895595324327,0.0,0.0,-0.015533430342700001,0.0,0.0,0.0
741,0.0,0.0,0.444713343089,0.89567295509,0.0,0.0,-0.012042771838799999,0.0,0.0,0.0
742,0.0,0.0,0.444244308887,0.895905683664,0.0,0.0,-0.024609142453099996,0.0,0.0,0.0
743,0.0,0.0,0.444244308887,0.895905683664,0.0,0.0,0.00837758040957,0.0,0.0,0.0
744,0.0,0.0,0.444322489715,0.895866912623,0.0,0.0,-0.0249582083035,0.0,0.0,0.0
745,0.0,0.0,0.44416612467600003,0.895944447882,0.0,0.0,-0.00994837673637,0.0,0.0,0.0
746,0.0,0.0,0.442366955446,0.8968341411480001,0.0,0.0,-0.19442967867199998,0.0,0.0,0.0
747,0.0,0.0,0.43342316831600003,0.9011905221240001,0.0,0.0,-0.21240656996800003,0.0,0.0,0.0
748,0.0,0.0,0.42822552330200003,0.9036718990829999,0.0,0.0,-0.243822496504,0.0,0.0,0.0
749,0.0,0.0,0.418738986386,0.908106635413,0.0,0.0,-0.560425222815,0.0,0.0,0.0
750,0.0,0.0,0.402187482785,0.9155573322799998,0.0,0.0,-0.605454717517,0.0,0.0,0.0
751,0.0,0.0,0.385664509195,0.922639087806,0.0,0.0,-0.525867703626,0.0,0.0,0.0
752,0.0,0.0,0.371772928554,0.928323698714,0.0,0.0,-0.569850000776,0.0,0.0,0.0
753,0.0,0.0,0.35600416689000003,0.9344843675299999,0.0,0.0,-0.47874381382200004,0.0,0.0,0.0
754,0.0,0.0,0.343495786485,0.939154217723,0.0,0.0,-0.48834312470799995,0.0,0.0,0.0
755,0.0,0.0,0.337013098336,0.941499958338,0.0,0.0,-0.506145483078,0.0,0.0,0.0
756,0.0,0.0,0.32193523267499996,0.9467616943889999,0.0,0.0,-0.591666616426,0.0,0.0,0.0
757,0.0,0.0,0.30453183161200004,0.9525021593340001,0.0,0.0,-0.542622864445,0.0,0.0,0.0
758,0.0,0.0,0.299790158549,0.9540051681399999,0.0,0.0,-0.530231026756,0.0,0.0,0.0
759,0.0,0.0,0.286273720013,0.9581478785809999,0.0,0.0,-0.523424242673,0.0,0.0,0.0
760,0.0,0.0,0.270180366714,0.9628097265000001,0.0,0.0,-0.537735942539,0.0,0.0,0.0
761,0.0,0.0,0.265303708803,0.964164893623,0.0,0.0,-0.536863277913,0.0,0.0,0.0
762,0.0,0.0,0.248098167018,0.96873489641,0.0,0.0,-0.555712833835,0.0,0.0,0.0
763,0.0,0.0,0.24302250527,0.9700206502609999,0.0,0.0,-0.574038790981,0.0,0.0,0.0
764,0.0,0.0,0.227331215647,0.9738174974770001,0.0,0.0,-0.581194640914,0.0,0.0,0.0
765,0.0,0.0,0.22222922625100003,0.9749944466509999,0.0,0.0,-0.565137611796,0.0,0.0,0.0
766,0.0,0.0,0.20620418539700003,0.9785089851019999,0.0,0.0,-0.47769661627099996,0.0,0.0,0.0
767,0.0,0.0,0.201847215651,0.97941702126,0.0,0.0,-0.478918346747,0.0,0.0,0.0
768,0.0,0.0,0.185237852011,0.982693715347,0.0,0.0,-0.552222175331,0.0,0.0,0.0
769,0.0,0.0,0.170467472515,0.985363303972,0.0,0.0,-0.554491103359,0.0,0.0,0.0
770,0.0,0.0,0.165047605861,0.986285601537,0.0,0.0,-0.592364748127,0.0,0.0,0.0
771,0.0,0.0,0.14591036574400001,0.9892978141940001,0.0,0.0,-0.596553538332,0.0,0.0,0.0
772,0.0,0.0,0.14055563990999997,0.990072781208,0.0,0.0,-0.580321976288,0.0,0.0,0.0
773,0.0,0.0,0.12671836439,0.991938736075,0.0,0.0,-0.438426708101,0.0,0.0,0.0
774,0.0,0.0,0.111035308554,0.9938164620559999,0.0,0.0,-0.551698576555,0.0,0.0,0.0
775,0.0,0.0,0.0947164499188,0.9955042913590001,0.0,0.0,-0.58206730554,0.0,0.0,0.0
776,0.0,0.0,0.07663201856810001,0.9970594434289999,0.0,0.0,-0.550476846079,0.0,0.0,0.0
777,0.0,0.0,0.061658253958,0.998097319763,0.0,0.0,-0.540877535193,0.0,0.0,0.0
778,0.0,0.0,0.04353220379509999,0.999052024287,0.0,0.0,-0.554665636284,0.0,0.0,0.0
779,0.0,0.0,0.028008871055900005,0.999607674611,0.0,0.0,-0.576656784859,0.0,0.0,0.0
780,0.0,0.0,0.0089010616441,0.999960384766,0.0,0.0,-0.591317550576,0.0,0.0,0.0
781,0.0,0.0,-0.007417581299439999,0.9999724893649999,0.0,0.0,-0.595680873706,0.0,0.0,0.0
782,0.0,0.0,-0.026089711649700004,0.999659605539,0.0,0.0,-0.5471607205,0.0,0.0,0.0
783,0.0,0.0,-0.042398787455599996,0.9991007671009999,0.0,0.0,-0.515570261039,0.0,0.0,0.0
784,0.0,0.0,-0.0575640269596,0.998341816614,0.0,0.0,-0.575260521457,0.0,0.0,0.0
785,0.0,0.0,-0.0771540671435,0.997019182325,0.0,0.0,-0.60423298704,0.0,0.0,0.0
786,0.0,0.0,-0.09358702541649999,0.995611103129,0.0,0.0,-0.583812634792,0.0,0.0,0.0
787,0.0,0.0,-0.112596254176,0.993640822202,0.0,0.0,-0.5667084081229999,0.0,0.0,0.0
788,0.0,0.0,-0.117710718809,0.993047927684,0.0,0.0,-0.548207918051,0.0,0.0,0.0
789,0.0,0.0,-0.12723772490399998,0.9918722505249999,0.0,0.0,-0.16877333866799998,0.0,0.0,0.0
790,0.0,0.0,-0.13381322418199998,0.991006569622,0.0,0.0,-0.258657795146,0.0,0.0,0.0
791,0.0,0.0,-0.136061400396,0.990700406441,0.0,0.0,-0.238761041673,0.0,0.0,0.0
792,0.0,0.0,-0.142974422091,0.989726383718,0.0,0.0,-0.260577657323,0.0,0.0,0.0
793,0.0,0.0,-0.146600990296,0.989195708464,0.0,0.0,-0.267733507256,0.0,0.0,0.0
794,0.0,0.0,-0.15522765964500002,0.987878724177,0.0,0.0,-0.334754150533,0.0,0.0,0.0
795,0.0,0.0,-0.158071898542,0.987427604886,0.0,0.0,-0.300720230119,0.0,0.0,0.0
796,0.0,0.0,-0.166424559018,0.986054190273,0.0,0.0,-0.27070056698399997,0.0,0.0,0.0
797,0.0,0.0,-0.168833444713,0.9856445951489999,0.0,0.0,-0.252200076913,0.0,0.0,0.0
798,0.0,0.0,-0.16977951766899999,0.985482072582,0.0,0.0,0.0745255590602,0.0,0.0,0.0
799,0.0,0.0,-0.170037510451,0.9854375906370001,0.0,0.0,-0.00471238898038,0.0,0.0,0.0
800,0.0,0.0,-0.17089740212299998,0.985288829708,0.0,0.0,-0.055152404363,0.0,0.0,0.0
801,0.0,0.0,-0.171069364861,0.9852589874779999,0.0,0.0,0.014137166941200001,0.0,0.0,0.0
802,0.0,0.0,-0.17235891893,0.98503421416,0.0,0.0,-0.0671951762018,0.0,0.0,0.0
803,0.0,0.0,-0.17356223631700002,0.9848229029250001,0.0,0.0,-0.023561944901900004,0.0,0.0,0.0
804,0.0,0.0,-0.173734117695,0.9847925956,0.0,0.0,-0.000698131700798,0.0,0.0,0.0
805,0.0,0.0,-0.175108977755,0.9845490571369999,0.0,0.0,-0.054105206811800005,0.0,0.0,0.0
806,0.0,0.0,-0.175710371841,0.9844419054610001,0.0,0.0,-0.0185004900711,0.0,0.0,0.0
807,0.0,0.0,-0.17596809210499997,0.9843958708570001,0.0,0.0,0.009250245035569999,0.0,0.0,0.0
808,0.0,0.0,-0.176741180461,0.984257362243,0.0,0.0,-0.039618974020300006,0.0,0.0,0.0
809,0.0,0.0,-0.17665528713,0.9842727820730001,0.0,0.0,-0.00453785605519,0.0,0.0,0.0
810,0.0,0.0,-0.177857671046,0.984056222403,0.0,0.0,-0.0176278254451,0.0,0.0,0.0
811,0.0,0.0,-0.17794354547400001,0.9840406976459999,0.0,0.0,-0.0101229096616,0.0,0.0,0.0
812,0.0,0.0,-0.179317351584,0.983791282448,0.0,0.0,-0.0553269372882,0.0,0.0,0.0
813,0.0,0.0,-0.179660748593,0.9837286289499999,0.0,0.0,-0.014137166941200001,0.0,0.0,0.0
814,0.0,0.0,-0.179832438891,0.983697257251,0.0,0.0,-0.0244346095279,0.0,0.0,0.0
815,0.0,0.0,-0.180175803048,0.9836344239579999,0.0,0.0,-0.017278759594700002,0.0,0.0,0.0
816,0.0,0.0,-0.182321329976,0.98323900077,0.0,0.0,-0.0518362787842,0.0,0.0,0.0
817,0.0,0.0,-0.182492934777,0.98320716472,0.0,0.0,-0.013788101090799998,0.0,0.0,0.0
818,0.0,0.0,-0.18283612769699997,0.9831434027689999,0.0,0.0,-0.0253072741539,0.0,0.0,0.0
819,0.0,0.0,-0.183179298339,0.9830795210259999,0.0,0.0,-0.03525565089030001,0.0,0.0,0.0
820,0.0,0.0,-0.183865572622,0.9829513981899999,0.0,0.0,-0.08552113334769999,0.0,0.0,0.0
821,0.0,0.0,-0.18532360751,0.9826775465530001,0.0,0.0,0.00261799387799,0.0,0.0,0.0
822,0.0,0.0,-0.18532360751,0.9826775465530001,0.0,0.0,-0.00366519142919,0.0,0.0,0.0
823,0.0,0.0,-0.18532360751,0.9826775465530001,0.0,0.0,0.012217304764,0.0,0.0,0.0
824,0.0,0.0,-0.18626682470699998,0.982499195935,0.0,0.0,-0.047298422729,0.0,0.0,0.0
825,0.0,0.0,-0.18652403600900003,0.982450397726,0.0,0.0,0.0,0.0,0.0,0.0
826,0.0,0.0,-0.18678123452599998,0.9824015321799999,0.0,0.0,0.00680678408278,0.0,0.0,0.0
827,0.0,0.0,-0.187724186097,0.9822217824680001,0.0,0.0,-0.046076692252699995,0.0,0.0,0.0
828,0.0,0.0,-0.18789561327799997,0.9821890034559999,0.0,0.0,0.006981317007979999,0.0,0.0,0.0
829,0.0,0.0,-0.188666964687,0.9820411276700001,0.0,0.0,-0.0418879020479,0.0,0.0,0.0
830,0.0,0.0,-0.18960956942499999,0.981859567954,0.0,0.0,-0.0338593874887,0.0,0.0,0.0
831,0.0,0.0,-0.189866613158,0.981809894637,0.0,0.0,0.010821041362399999,0.0,0.0,0.0
832,0.0,0.0,-0.19055199944499998,0.981677103485,0.0,0.0,-0.024609142453099996,0.0,0.0,0.0
833,0.0,0.0,-0.191408601662,0.981510441722,0.0,0.0,-0.0418879020479,0.0,0.0,0.0
834,0.0,0.0,-0.191665553932,0.981460297432,0.0,0.0,0.0013962634016,0.0,0.0,0.0
835,0.0,0.0,-0.192008136522,0.9813933337399999,0.0,0.0,-0.022165681500300002,0.0,0.0,0.0
836,0.0,0.0,-0.19217941904599997,0.981359807051,0.0,0.0,-0.0151843644924,0.0,0.0,0.0
837,0.0,0.0,-0.192607599732,0.9812758595450001,0.0,0.0,-0.0277507351067,0.0,0.0,0.0
838,0.0,0.0,-0.192693231472,0.981259047624,0.0,0.0,-0.007679448708779999,0.0,0.0,0.0
839,0.0,0.0,-0.192864490548,0.981225401366,0.0,0.0,-0.0244346095279,0.0,0.0,0.0
840,0.0,0.0,-0.193378232506,0.981124283255,0.0,0.0,0.0,0.0,0.0,0.0
841,0.0,0.0,-0.19423435122000002,0.9809551553489999,0.0,0.0,-0.046425758103,0.0,0.0,0.0
842,0.0,0.0,-0.19457675732500002,0.980887295008,0.0,0.0,-0.030892327760299997,0.0,0.0,0.0
843,0.0,0.0,-0.195090322016,0.980785280403,0.0,0.0,-0.022340214425499997,0.0,0.0,0.0
844,0.0,0.0,-0.19526149836800002,0.980751215781,0.0,0.0,-0.0193731546971,0.0,0.0,0.0
845,0.0,0.0,-0.19551825174100002,0.980700062831,0.0,0.0,-0.0202458193231,0.0,0.0,0.0
846,0.0,0.0,-0.196459565994,0.9805119269700001,0.0,0.0,-0.00820304748437,0.0,0.0,0.0
847,0.0,0.0,-0.196459565994,0.9805119269700001,0.0,0.0,0.000174532925199,0.0,0.0,0.0
848,0.0,0.0,-0.196459565994,0.9805119269700001,0.0,0.0,0.0012217304764,0.0,0.0,0.0
849,0.0,0.0,-0.19748624777399998,0.9803056574050001,0.0,0.0,-0.07260569688299999,0.0,0.0,0.0
850,0.0,0.0,-0.198085045539,0.980184837025,0.0,0.0,-0.063879050623,0.0,0.0,0.0
851,0.0,0.0,-0.198769295319,0.980046308721,0.0,0.0,-0.007679448708779999,0.0,0.0,0.0
852,0.0,0.0,-0.198769295319,0.980046308721,0.0,0.0,0.00157079632679,0.0,0.0,0.0
853,0.0,0.0,-0.19851271298599998,0.9800983128149999,0.0,0.0,0.00296705972839,0.0,0.0,0.0
854,0.0,0.0,-0.199196902256,0.979959485964,0.0,0.0,-0.0127409035396,0.0,0.0,0.0
855,0.0,0.0,-0.19962447127,0.979872476637,0.0,0.0,-0.0317649923863,0.0,0.0,0.0
856,0.0,0.0,-0.19996649912,0.9798027348549999,0.0,0.0,-0.000698131700798,0.0,0.0,0.0
857,0.0,0.0,-0.20116340444699998,0.9795576985109999,0.0,0.0,-0.0518362787842,0.0,0.0,0.0
858,0.0,0.0,-0.201419845156,0.979505000486,0.0,0.0,-0.0019198621771900001,0.0,0.0,0.0
859,0.0,0.0,-0.20159079796,0.979469831173,0.0,0.0,0.004363323129989999,0.0,0.0,0.0
860,0.0,0.0,-0.202274547718,0.9793288555670001,0.0,0.0,-0.046076692252699995,0.0,0.0,0.0
861,0.0,0.0,-0.202616385647,0.979258188767,0.0,0.0,0.000698131700798,0.0,0.0,0.0
862,0.0,0.0,-0.20295819888900002,0.979187402648,0.0,0.0,-0.0345575191895,0.0,0.0,0.0
863,0.0,0.0,-0.2032999874,0.979116497217,0.0,0.0,0.00680678408278,0.0,0.0,0.0
864,0.0,0.0,-0.204496051842,0.9788673887620001,0.0,0.0,-0.0488692190558,0.0,0.0,0.0
865,0.0,0.0,-0.204752311714,0.978813818276,0.0,0.0,-0.0237364778271,0.0,0.0,0.0
866,0.0,0.0,-0.204752311714,0.978813818276,0.0,0.0,-0.00226892802759,0.0,0.0,0.0
867,0.0,0.0,-0.204923143834,0.978778067348,0.0,0.0,-0.0134390352404,0.0,0.0,0.0
868,0.0,0.0,-0.20526478934,0.978706476047,0.0,0.0,-0.0518362787842,0.0,0.0,0.0
869,0.0,0.0,-0.20594800528,0.978562935698,0.0,0.0,-0.0787143492649,0.0,0.0,0.0
870,0.0,0.0,-0.20731413569600002,0.9782744242489999,0.0,0.0,-0.000698131700798,0.0,0.0,0.0
871,0.0,0.0,-0.20705801694899997,0.978328665438,0.0,0.0,0.010646508437200001,0.0,0.0,0.0
872,0.0,0.0,-0.20697264087900002,0.978346730933,0.0,0.0,0.009250245035569999,0.0,0.0,0.0
873,0.0,0.0,-0.20774096869000003,0.978183873271,0.0,0.0,-0.046076692252699995,0.0,0.0,0.0
874,0.0,0.0,-0.207997049507,0.978129453292,0.0,0.0,-0.017453292519900004,0.0,0.0,0.0
875,0.0,0.0,-0.208509168356,0.978020412216,0.0,0.0,-0.0240855436775,0.0,0.0,0.0
876,0.0,0.0,-0.208509168356,0.978020412216,0.0,0.0,0.00471238898038,0.0,0.0,0.0
877,0.0,0.0,-0.20919190454199998,0.97787460703,0.0,0.0,-0.004014257279590001,0.0,0.0,0.0
878,0.0,0.0,-0.20987453877,0.9777283252399999,0.0,0.0,-0.050789081233,0.0,0.0,0.0
879,0.0,0.0,-0.210642379992,0.977563188623,0.0,0.0,0.0,0.0,0.0,0.0
880,0.0,0.0,-0.21123950002300002,0.977434332132,0.0,0.0,-0.024609142453099996,0.0,0.0,0.0
881,0.0,0.0,-0.211495384491,0.9773789962639999,0.0,0.0,-0.0240855436775,0.0,0.0,0.0
882,0.0,0.0,-0.211751254463,0.977323593409,0.0,0.0,0.00453785605519,0.0,0.0,0.0
883,0.0,0.0,-0.212433503388,0.977175524989,0.0,0.0,-0.021816615649900003,0.0,0.0,0.0
884,0.0,0.0,-0.212604049454,0.9771384334659999,0.0,0.0,-0.027925268031900003,0.0,0.0,0.0
885,0.0,0.0,-0.213627189669,0.9769152592899999,0.0,0.0,0.00994837673637,0.0,0.0,0.0
886,0.0,0.0,-0.21422391334600002,0.976784579603,0.0,0.0,-0.0441568300755,0.0,0.0,0.0
887,0.0,0.0,-0.21430915306499998,0.9767658813210001,0.0,0.0,-0.012391837689200002,0.0,0.0,0.0
888,0.0,0.0,-0.21456486242800002,0.9767097418430001,0.0,0.0,-0.0333357887131,0.0,0.0,0.0
889,0.0,0.0,-0.215076237017,0.9765972620640001,0.0,0.0,0.00261799387799,0.0,0.0,0.0
890,0.0,0.0,-0.215757978057,0.976446872546,0.0,0.0,-0.021118483949099997,0.0,0.0,0.0
891,0.0,0.0,-0.215757978057,0.976446872546,0.0,0.0,0.012391837689200002,0.0,0.0,0.0
892,0.0,0.0,-0.215843188299,0.9764280403929999,0.0,0.0,-0.017453292519900004,0.0,0.0,0.0
893,0.0,0.0,-0.21592839689800003,0.9764092008030001,0.0,0.0,0.00366519142919,0.0,0.0,0.0
894,0.0,0.0,-0.216524811013,0.976277115483,0.0,0.0,-0.0678933079026,0.0,0.0,0.0
895,0.0,0.0,-0.21712114433000002,0.976144665859,0.0,0.0,-0.0654498469498,0.0,0.0,0.0
896,0.0,0.0,-0.21771739662599998,0.97601185198,0.0,0.0,-0.021816615649900003,0.0,0.0,0.0
897,0.0,0.0,-0.217887739513,0.975973838261,0.0,0.0,-0.013089969390000001,0.0,0.0,0.0
898,0.0,0.0,-0.217887739513,0.975973838261,0.0,0.0,-0.0186750229963,0.0,0.0,0.0
899,0.0,0.0,-0.21882450661,0.9757642314139999,0.0,0.0,-0.0256563400043,0.0,0.0,0.0
900,0.0,0.0,-0.21856904463500001,0.975821486096,0.0,0.0,0.0038397243543899996,0.0,0.0,0.0
901,0.0,0.0,-0.218654200292,0.9758024086329999,0.0,0.0,-0.010471975512,0.0,0.0,0.0
902,0.0,0.0,-0.220101591162,0.975476954914,0.0,0.0,-0.0415388361975,0.0,0.0,0.0
903,0.0,0.0,-0.220271840655,0.975438525082,0.0,0.0,0.014660765716799999,0.0,0.0,0.0
904,0.0,0.0,-0.220356962886,0.975419299024,0.0,0.0,-0.0193731546971,0.0,0.0,0.0
905,0.0,0.0,-0.221803783528,0.9750913196269999,0.0,0.0,-0.044680428851100004,0.0,0.0,0.0
906,0.0,0.0,-0.22188887545400002,0.975071959883,0.0,0.0,0.015533430342700001,0.0,0.0,0.0
907,0.0,0.0,-0.22188887545400002,0.975071959883,0.0,0.0,-0.009075712110370001,0.0,0.0,0.0
908,0.0,0.0,-0.223250116011,0.974761194191,0.0,0.0,-0.015358897417600001,0.0,0.0,0.0
909,0.0,0.0,-0.22282477496599998,0.974858512637,0.0,0.0,0.00610865238198,0.0,0.0,0.0
910,0.0,0.0,-0.222654626665,0.9748973880490001,0.0,0.0,-0.0195476876223,0.0,0.0,0.0
911,0.0,0.0,-0.22316505120000002,0.974780672727,0.0,0.0,-0.06981317007980001,0.0,0.0,0.0
912,0.0,0.0,-0.224355803608,0.9745072977600001,0.0,0.0,0.00994837673637,0.0,0.0,0.0
913,0.0,0.0,-0.224270760949,0.9745268727869999,0.0,0.0,0.005410520681180001,0.0,0.0,0.0
914,0.0,0.0,-0.225291159947,0.974291482694,0.0,0.0,-0.0385717764691,0.0,0.0,0.0
915,0.0,0.0,-0.225376182061,0.9742718186210001,0.0,0.0,-0.009075712110370001,0.0,0.0,0.0
916,0.0,0.0,-0.226311311886,0.974055024171,0.0,0.0,-0.015358897417600001,0.0,0.0,0.0
917,0.0,0.0,-0.226226308688,0.974074769849,0.0,0.0,0.0160570291183,0.0,0.0,0.0
918,0.0,0.0,-0.226311311886,0.974055024171,0.0,0.0,-0.021816615649900003,0.0,0.0,0.0
919,0.0,0.0,-0.226396313361,0.974035271074,0.0,0.0,-0.00366519142919,0.0,0.0,0.0
920,0.0,0.0,-0.22673630201099998,0.9739561845129999,0.0,0.0,-0.042935099599099996,0.0,0.0,0.0
921,0.0,0.0,-0.226821294859,0.9739363943289999,0.0,0.0,0.0102974425868,0.0,0.0,0.0
922,0.0,0.0,-0.226906285979,0.9739165967290001,0.0,0.0,-0.0167551608191,0.0,0.0,0.0
923,0.0,0.0,-0.227416196389,0.973797655378,0.0,0.0,-0.0034906585039899997,0.0,0.0,0.0
924,0.0,0.0,-0.228435830028,0.973558971793,0.0,0.0,-0.0403171057211,0.0,0.0,0.0
925,0.0,0.0,-0.228605744643,0.973519087392,0.0,0.0,-0.0164060949687,0.0,0.0,0.0
926,0.0,0.0,-0.22894555297699998,0.9734392296250001,0.0,0.0,0.0115191730632,0.0,0.0,0.0
927,0.0,0.0,-0.22945521315900003,0.973319220582,0.0,0.0,-0.0364773813667,0.0,0.0,0.0
928,0.0,0.0,-0.229794951674,0.9732390663060001,0.0,0.0,-0.00977384381117,0.0,0.0,0.0
929,0.0,0.0,-0.23030450693500001,0.973118612547,0.0,0.0,0.0129154364648,0.0,0.0,0.0
930,0.0,0.0,-0.23064417537300003,0.973038161824,0.0,0.0,-0.0387463093943,0.0,0.0,0.0
931,0.0,0.0,-0.230983815708,0.9729575925399999,0.0,0.0,-0.0050614548307799994,0.0,0.0,0.0
932,0.0,0.0,-0.231663011902,0.9727960983249999,0.0,0.0,-0.0214675497995,0.0,0.0,0.0
933,0.0,0.0,-0.232257215962,0.97265440195,0.0,0.0,-0.0376991118431,0.0,0.0,0.0
934,0.0,0.0,-0.232257215962,0.97265440195,0.0,0.0,0.010821041362399999,0.0,0.0,0.0
935,0.0,0.0,-0.232426972642,0.9726138506049999,0.0,0.0,-0.00645771823238,0.0,0.0,0.0
936,0.0,0.0,-0.232342095187,0.972634129981,0.0,0.0,0.009599310885969999,0.0,0.0,0.0
937,0.0,0.0,-0.233360507684,0.9723902886460001,0.0,0.0,-0.0600393262686,0.0,0.0,0.0
938,0.0,0.0,-0.233869618037,0.9722679680830001,0.0,0.0,-0.008028514559169999,0.0,0.0,0.0
939,0.0,0.0,-0.233954463532,0.972247555406,0.0,0.0,-0.012391837689200002,0.0,0.0,0.0
940,0.0,0.0,-0.23378477075999998,0.9722883733550001,0.0,0.0,-0.00226892802759,0.0,0.0,0.0
941,0.0,0.0,-0.23480282039099998,0.972043021443,0.0,0.0,-0.027227136331099997,0.0,0.0,0.0
942,0.0,0.0,-0.234887646252,0.9720225273309999,0.0,0.0,0.000872664625997,0.0,0.0,0.0
943,0.0,0.0,-0.234887646252,0.9720225273309999,0.0,0.0,-0.00942477796077,0.0,0.0,0.0
944,0.0,0.0,-0.234887646252,0.9720225273309999,0.0,0.0,0.005410520681180001,0.0,0.0,0.0
945,0.0,0.0,-0.235226931805,0.971940476857,0.0,0.0,-0.0588175957922,0.0,0.0,0.0
946,0.0,0.0,-0.235905416885,0.9717760206370001,0.0,0.0,0.007679448708779999,0.0,0.0,0.0
947,0.0,0.0,-0.235820612531,0.971796603568,0.0,0.0,0.006632251157579999,0.0,0.0,0.0
948,0.0,0.0,-0.23565099843600001,0.971837747227,0.0,0.0,0.0251327412287,0.0,0.0,0.0
949,0.0,0.0,-0.23624461632899998,0.971693614909,0.0,0.0,-0.05654866776459999,0.0,0.0,0.0
950,0.0,0.0,-0.23641420525899998,0.9716523676459999,0.0,0.0,0.0116937059884,0.0,0.0,0.0
951,0.0,0.0,-0.236838146066,0.971549119998,0.0,0.0,0.00279252680319,0.0,0.0,0.0
952,0.0,0.0,-0.23751635753400002,0.971383539033,0.0,0.0,-0.07120943348139999,0.0,0.0,0.0
953,0.0,0.0,-0.23819445324000002,0.971217484627,0.0,0.0,0.00837758040957,0.0,0.0,0.0
954,0.0,0.0,-0.238448709217,0.971155092183,0.0,0.0,0.00453785605519,0.0,0.0,0.0
955,0.0,0.0,-0.238448709217,0.971155092183,0.0,0.0,-0.047996554429800005,0.0,0.0,0.0
956,0.0,0.0,-0.23938084117699998,0.970925750445,0.0,0.0,0.010821041362399999,0.0,0.0,0.0
957,0.0,0.0,-0.239550296042,0.970883955819,0.0,0.0,0.004363323129989999,0.0,0.0,0.0
958,0.0,0.0,-0.23938084117699998,0.970925750445,0.0,0.0,-0.048171087355,0.0,0.0,0.0
959,0.0,0.0,-0.23988918387400002,0.970800277843,0.0,0.0,-0.0581194640914,0.0,0.0,0.0
960,0.0,0.0,-0.24031275255600001,0.970695514031,0.0,0.0,-0.008028514559169999,0.0,0.0,0.0
961,0.0,0.0,-0.240566871809,0.970632567035,0.0,0.0,0.0102974425868,0.0,0.0,0.0
962,0.0,0.0,-0.240482167222,0.970653556759,0.0,0.0,0.0101229096616,0.0,0.0,0.0
963,0.0,0.0,-0.241244442494,0.970464383152,0.0,0.0,-0.010821041362399999,0.0,0.0,0.0
964,0.0,0.0,-0.241159752582,0.9704854320049999,0.0,0.0,0.005410520681180001,0.0,0.0,0.0
965,0.0,0.0,-0.241583183765,0.970380113833,0.0,0.0,-0.011344640138,0.0,0.0,0.0
966,0.0,0.0,-0.241583183765,0.970380113833,0.0,0.0,0.005410520681180001,0.0,0.0,0.0
967,0.0,0.0,-0.2419218956,0.970295726276,0.0,0.0,-0.0240855436775,0.0,0.0,0.0
968,0.0,0.0,-0.242091240466,0.9702534881620001,0.0,0.0,-0.0160570291183,0.0,0.0,0.0
969,0.0,0.0,-0.242006568954,0.9702746109129999,0.0,0.0,-0.0109955742876,0.0,0.0,0.0
970,0.0,0.0,-0.24183722040300001,0.970316834249,0.0,0.0,0.010471975512,0.0,0.0,0.0
971,0.0,0.0,-0.24183722040300001,0.970316834249,0.0,0.0,-0.0134390352404,0.0,0.0,0.0
972,0.0,0.0,-0.24251457035500001,0.970147763573,0.0,0.0,-0.0005235987755980001,0.0,0.0,0.0
973,0.0,0.0,-0.24251457035500001,0.970147763573,0.0,0.0,0.000872664625997,0.0,0.0,0.0
974,0.0,0.0,-0.243361091541,0.969935760308,0.0,0.0,-0.026005405854700004,0.0,0.0,0.0
975,0.0,0.0,-0.24361501178599998,0.9698720152850001,0.0,0.0,-0.0317649923863,0.0,0.0,0.0
976,0.0,0.0,-0.24386891533399999,0.969808203788,0.0,0.0,0.0116937059884,0.0,0.0,0.0
977,0.0,0.0,-0.24471513968199998,0.969595018763,0.0,0.0,-0.0338593874887,0.0,0.0,0.0
978,0.0,0.0,-0.244630525623,0.969616370496,0.0,0.0,-0.0167551608191,0.0,0.0,0.0
979,0.0,0.0,-0.24488436220899998,0.9695522931460001,0.0,0.0,0.0202458193231,0.0,0.0,0.0
980,0.0,0.0,-0.24530738587900003,0.969445349895,0.0,0.0,-0.0315904594611,0.0,0.0,0.0
981,0.0,0.0,-0.245730362846,0.969338222075,0.0,0.0,-0.0553269372882,0.0,0.0,0.0
982,0.0,0.0,-0.246237873445,0.969209425089,0.0,0.0,0.0181514242207,0.0,0.0,0.0
983,0.0,0.0,-0.246999012723,0.9690157314069999,0.0,0.0,-0.056025068989000004,0.0,0.0,0.0
984,0.0,0.0,-0.24742180207199999,0.9689078655159999,0.0,0.0,-0.030892327760299997,0.0,0.0,0.0
985,0.0,0.0,-0.247844544316,0.968799815159,0.0,0.0,0.00837758040957,0.0,0.0,0.0
986,0.0,0.0,-0.248013628006,0.968756543371,0.0,0.0,-0.021118483949099997,0.0,0.0,0.0
987,0.0,0.0,-0.248013628006,0.968756543371,0.0,0.0,-0.0151843644924,0.0,0.0,0.0
988,0.0,0.0,-0.249366025115,0.968409306811,0.0,0.0,0.006981317007979999,0.0,0.0,0.0
989,0.0,0.0,-0.24911248760899998,0.968474557496,0.0,0.0,-0.00314159265359,0.0,0.0,0.0
990,0.0,0.0,-0.249197002009,0.968452814643,0.0,0.0,-0.013788101090799998,0.0,0.0,0.0
991,0.0,0.0,-0.249197002009,0.968452814643,0.0,0.0,-0.029670597283900004,0.0,0.0,0.0
992,0.0,0.0,-0.24953504062600002,0.96836576948,0.0,0.0,-0.039618974020300006,0.0,0.0,0.0
993,0.0,0.0,-0.249704048534,0.96832220265,0.0,0.0,0.007853981633970001,0.0,0.0,0.0
994,0.0,0.0,-0.249957546134,0.9682567970999999,0.0,0.0,0.00558505360638,0.0,0.0,0.0
995,0.0,0.0,-0.249788549637,0.968300408174,0.0,0.0,0.0226892802759,0.0,0.0,0.0
996,0.0,0.0,-0.250633455931,0.968082057869,0.0,0.0,-0.0321140582367,0.0,0.0,0.0
997,0.0,0.0,-0.250211026602,0.968191325187,0.0,0.0,0.009599310885969999,0.0,0.0,0.0
998,0.0,0.0,-0.250211026602,0.968191325187,0.0,0.0,-0.00750491578358,0.0,0.0,0.0
999,0.0,0.0,-0.250126535017,0.968213156531,0.0,0.0,-0.0116937059884,0.0,0.0,0.0
1000,0.0,0.0,-0.25054897388,0.9681039260780001,0.0,0.0,-0.0563741348394,0.0,0.0,0.0
1001,0.0,0.0,-0.251309243572,0.967906846807,0.0,0.0,0.0202458193231,0.0,0.0,0.0
1002,0.0,0.0,-0.251647091481,0.967819064366,0.0,0.0,-0.027052603405900003,0.0,0.0,0.0
1003,0.0,0.0,-0.251309243572,0.967906846807,0.0,0.0,-0.000698131700798,0.0,0.0,0.0
1004,0.0,0.0,-0.25198490872699997,0.9677311639980001,0.0,0.0,0.017278759594700002,0.0,0.0,0.0
1005,0.0,0.0,-0.252660451069,0.96755500953,0.0,0.0,-0.0476474885794,0.0,0.0,0.0
1006,0.0,0.0,-0.253082602519,0.9674446735100001,0.0,0.0,-0.00977384381117,0.0,0.0,0.0
1007,0.0,0.0,-0.25316702703,0.967422584202,0.0,0.0,0.0158824961931,0.0,0.0,0.0
1008,0.0,0.0,-0.253335870266,0.967378383486,0.0,0.0,-0.029496064358700003,0.0,0.0,0.0
1009,0.0,0.0,-0.25358912065,0.9673120271600001,0.0,0.0,-0.0144862327916,0.0,0.0,0.0
1010,0.0,0.0,-0.254011165991,0.967201285954,0.0,0.0,0.0033161255787899995,0.0,0.0,0.0
1011,0.0,0.0,-0.254179970591,0.967156937911,0.0,0.0,-0.022863813201099998,0.0,0.0,0.0
1012,0.0,0.0,-0.254517556558,0.967068153443,0.0,0.0,-0.00157079632679,0.0,0.0,0.0
1013,0.0,0.0,-0.254686337914,0.9670237170200001,0.0,0.0,0.0176278254451,0.0,0.0,0.0
1014,0.0,0.0,-0.254348767449,0.967112560407,0.0,0.0,0.030717794835099996,0.0,0.0,0.0
1015,0.0,0.0,-0.25519263541299997,0.9668902310140001,0.0,0.0,-0.0521853446346,0.0,0.0,0.0
1016,0.0,0.0,-0.25569886295,0.9667564799299999,0.0,0.0,-0.0293215314335,0.0,0.0,0.0
1017,0.0,0.0,-0.256036309038,0.966667165292,0.0,0.0,-0.0338593874887,0.0,0.0,0.0
1018,0.0,0.0,-0.25595195043900004,0.9666895049940001,0.0,0.0,0.0183259571459,0.0,0.0,0.0
1019,0.0,0.0,-0.256036309038,0.966667165292,0.0,0.0,-0.0197222205475,0.0,0.0,0.0
1020,0.0,0.0,-0.256458072772,0.966555356361,0.0,0.0,0.00855211333477,0.0,0.0,0.0
1021,0.0,0.0,-0.256458072772,0.966555356361,0.0,0.0,-0.00418879020479,0.0,0.0,0.0
1022,0.0,0.0,-0.25747010637,0.9662862641709999,0.0,0.0,-0.0134390352404,0.0,0.0,0.0
1023,0.0,0.0,-0.257638751216,0.9662413124429999,0.0,0.0,-0.0286233997327,0.0,0.0,0.0
1024,0.0,0.0,-0.25999895266899997,0.9656088983700001,0.0,0.0,-0.0949459113085,0.0,0.0,0.0
1025,0.0,0.0,-0.261178472154,0.9652905291580001,0.0,0.0,0.005410520681180001,0.0,0.0,0.0
1026,0.0,0.0,-0.26109423367,0.965313317604,0.0,0.0,0.009250245035569999,0.0,0.0,0.0
1027,0.0,0.0,-0.26126270865,0.965267733362,0.0,0.0,-0.013089969390000001,0.0,0.0,0.0
1028,0.0,0.0,-0.261431175671,0.9652221197149999,0.0,0.0,0.0205948851735,0.0,0.0,0.0
1029,0.0,0.0,-0.261683861269,0.965153644117,0.0,0.0,-0.05148721293380001,0.0,0.0,0.0
1030,0.0,0.0,-0.262020747497,0.965062240418,0.0,0.0,-0.027227136331099997,0.0,0.0,0.0
1031,0.0,0.0,-0.262357601798,0.9649707191299999,0.0,0.0,-0.026005405854700004,0.0,0.0,0.0
1032,0.0,0.0,-0.262610221548,0.964902001002,0.0,0.0,0.0186750229963,0.0,0.0,0.0
1033,0.0,0.0,-0.26336797273400003,0.9646954498379999,0.0,0.0,-0.0354301838155,0.0,0.0,0.0
1034,0.0,0.0,-0.26345215729000004,0.9646724629729999,0.0,0.0,-0.00453785605519,0.0,0.0,0.0
1035,0.0,0.0,-0.263283786172,0.9647184293559999,0.0,0.0,0.0162315620435,0.0,0.0,0.0
1036,0.0,0.0,-0.263704698919,0.964603458302,0.0,0.0,-0.0280998009571,0.0,0.0,0.0
1037,0.0,0.0,-0.263704698919,0.964603458302,0.0,0.0,-0.000698131700798,0.0,0.0,0.0
1038,0.0,0.0,-0.263873049965,0.964557418458,0.0,0.0,0.006981317007979999,0.0,0.0,0.0
1039,0.0,0.0,-0.264209727938,0.964465250625,0.0,0.0,-0.0441568300755,0.0,0.0,0.0
1040,0.0,0.0,-0.264546373717,0.964372965275,0.0,0.0,-0.006632251157579999,0.0,0.0,0.0
1041,0.0,0.0,-0.264546373717,0.964372965275,0.0,0.0,-0.0204203522483,0.0,0.0,0.0
1042,0.0,0.0,-0.264462215293,0.964396047629,0.0,0.0,0.0012217304764,0.0,0.0,0.0
1043,0.0,0.0,-0.264546373717,0.964372965275,0.0,0.0,-0.022863813201099998,0.0,0.0,0.0
1044,0.0,0.0,-0.265219568533,0.964188042068,0.0,0.0,0.00523598775598,0.0,0.0,0.0
1045,0.0,0.0,-0.265219568533,0.964188042068,0.0,0.0,0.0012217304764,0.0,0.0,0.0
1046,0.0,0.0,-0.265051281935,0.9642343169299998,0.0,0.0,0.0178023583703,0.0,0.0,0.0
1047,0.0,0.0,-0.265135426243,0.96421118317,0.0,0.0,-0.0342084533391,0.0,0.0,0.0
1048,0.0,0.0,-0.265640249671,0.96407222642,0.0,0.0,-0.0267035375555,0.0,0.0,0.0
1049,0.0,0.0,-0.26580850797,0.964025848767,0.0,0.0,-0.006981317007979999,0.0,0.0,0.0
1050,0.0,0.0,-0.26580850797,0.964025848767,0.0,0.0,0.000698131700798,0.0,0.0,0.0
1051,0.0,0.0,-0.265640249671,0.96407222642,0.0,0.0,-0.00942477796077,0.0,0.0,0.0
1052,0.0,0.0,-0.265724379832,0.9640490412639999,0.0,0.0,-0.0165806278939,0.0,0.0,0.0
1053,0.0,0.0,-0.266060880235,0.9639562272259999,0.0,0.0,-0.008028514559169999,0.0,0.0,0.0
1054,0.0,0.0,-0.266565570041,0.9638167859450001,0.0,0.0,-0.00820304748437,0.0,0.0,0.0
1055,0.0,0.0,-0.26690198932,0.9637236782899999,0.0,0.0,-0.020943951023900002,0.0,0.0,0.0
1056,0.0,0.0,-0.266817887548,0.9637469662129999,0.0,0.0,-0.000872664625997,0.0,0.0,0.0
1057,0.0,0.0,-0.267322467681,0.963607128592,0.0,0.0,-0.0010471975512,0.0,0.0,0.0
1058,0.0,0.0,-0.267406557249,0.963583796636,0.0,0.0,-0.00296705972839,0.0,0.0,0.0
1059,0.0,0.0,-0.26757473027399997,0.963537110712,0.0,0.0,-0.0102974425868,0.0,0.0,0.0
1060,0.0,0.0,-0.267995127166,0.963420267493,0.0,0.0,-0.0181514242207,0.0,0.0,0.0
1061,0.0,0.0,-0.26807920042399996,0.9633968768369999,0.0,0.0,-0.004014257279590001,0.0,0.0,0.0
1062,0.0,0.0,-0.26816327164000003,0.963373478846,0.0,0.0,0.000174532925199,0.0,0.0,0.0
1063,0.0,0.0,-0.268583597078,0.9632563788420001,0.0,0.0,0.00418879020479,0.0,0.0,0.0
1064,0.0,0.0,-0.26875171294,0.963209487491,0.0,0.0,-0.0280998009571,0.0,0.0,0.0
1065,0.0,0.0,-0.268919820615,0.963162566798,0.0,0.0,0.0136135681656,0.0,0.0,0.0
1066,0.0,0.0,-0.268835767801,0.963186030812,0.0,0.0,-0.000872664625997,0.0,0.0,0.0
1067,0.0,0.0,-0.269087920099,0.9631156167649999,0.0,0.0,0.0111701072128,0.0,0.0,0.0
1068,0.0,0.0,-0.269171966767,0.963092130747,0.0,0.0,-0.0267035375555,0.0,0.0,0.0
1069,0.0,0.0,-0.270180366714,0.9628097265000001,0.0,0.0,-0.014660765716799999,0.0,0.0,0.0
1070,0.0,0.0,-0.270264386684,0.962786145149,0.0,0.0,-0.00750491578358,0.0,0.0,0.0
1071,0.0,0.0,-0.270012320601,0.9628568672050001,0.0,0.0,0.0109955742876,0.0,0.0,0.0
1072,0.0,0.0,-0.26992829446,0.962880426559,0.0,0.0,0.013089969390000001,0.0,0.0,0.0
1073,0.0,0.0,-0.270684455649,0.962668128417,0.0,0.0,-0.03403392041390001,0.0,0.0,0.0
1074,0.0,0.0,-0.27085246880999997,0.962620870405,0.0,0.0,-0.0125663706144,0.0,0.0,0.0
1075,0.0,0.0,-0.27085246880999997,0.962620870405,0.0,0.0,0.00558505360638,0.0,0.0,0.0
1076,0.0,0.0,-0.27085246880999997,0.962620870405,0.0,0.0,-0.00244346095279,0.0,0.0,0.0
1077,0.0,0.0,-0.270936472296,0.9625972304029999,0.0,0.0,-0.0150098315672,0.0,0.0,0.0
1078,0.0,0.0,-0.271356458768,0.9624789204369999,0.0,0.0,0.0125663706144,0.0,0.0,0.0
1079,0.0,0.0,-0.271440449865,0.962455236454,0.0,0.0,-0.024609142453099996,0.0,0.0,0.0
1080,0.0,0.0,-0.27127246560400003,0.96250259709,0.0,0.0,-0.0144862327916,0.0,0.0,0.0
1081,0.0,0.0,-0.272196276643,0.962241750799,0.0,0.0,0.00157079632679,0.0,0.0,0.0
1082,0.0,0.0,-0.272280247041,0.962217993529,0.0,0.0,-0.0191986217719,0.0,0.0,0.0
1083,0.0,0.0,-0.272196276643,0.962241750799,0.0,0.0,0.000174532925199,0.0,0.0,0.0
1084,0.0,0.0,-0.27320378441599996,0.9619561799690001,0.0,0.0,-0.0125663706144,0.0,0.0,0.0
1085,0.0,0.0,-0.27320378441599996,0.9619561799690001,0.0,0.0,-0.0165806278939,0.0,0.0,0.0
1086,0.0,0.0,-0.272951935517,0.962027671586,0.0,0.0,-0.00733038285838,0.0,0.0,0.0
1087,0.0,0.0,-0.273875289887,0.961765213339,0.0,0.0,-0.009250245035569999,0.0,0.0,0.0
1088,0.0,0.0,-0.273791358997,0.961789109805,0.0,0.0,0.00279252680319,0.0,0.0,0.0
1089,0.0,0.0,-0.273875289887,0.961765213339,0.0,0.0,-0.00453785605519,0.0,0.0,0.0
1090,0.0,0.0,-0.27362349096099997,0.9618368807619999,0.0,0.0,-0.0050614548307799994,0.0,0.0,0.0
1091,0.0,0.0,-0.27463057397199997,0.961549815579,0.0,0.0,0.00855211333477,0.0,0.0,0.0
1092,0.0,0.0,-0.274546661875,0.961573777956,0.0,0.0,0.009075712110370001,0.0,0.0,0.0
1093,0.0,0.0,-0.27463057397199997,0.961549815579,0.0,0.0,0.0132645023152,0.0,0.0,0.0
1094,0.0,0.0,-0.274714483977,0.961525845879,0.0,0.0,-0.0312413936107,0.0,0.0,0.0
1095,0.0,0.0,-0.274966201438,0.961453892845,0.0,0.0,-0.0287979326579,0.0,0.0,0.0
1096,0.0,0.0,-0.274966201438,0.961453892845,0.0,0.0,-0.017453292519900004,0.0,0.0,0.0
1097,0.0,0.0,-0.275217900052,0.961381873914,0.0,0.0,-0.0267035375555,0.0,0.0,0.0
1098,0.0,0.0,-0.2753017954,0.9613578529610001,0.0,0.0,-0.0013962634016,0.0,0.0,0.0
1099,0.0,0.0,-0.275805123434,0.961213573504,0.0,0.0,0.00244346095279,0.0,0.0,0.0
1100,0.0,0.0,-0.275721240675,0.961237638381,0.0,0.0,0.0115191730632,0.0,0.0,0.0
1101,0.0,0.0,-0.276140633457,0.961117240795,0.0,0.0,-0.000349065850399,0.0,0.0,0.0
1102,0.0,0.0,-0.276140633457,0.961117240795,0.0,0.0,-0.0303687289847,0.0,0.0,0.0
1103,0.0,0.0,-0.276559973666,0.9609966602259999,0.0,0.0,0.00610865238198,0.0,0.0,0.0
1104,0.0,0.0,-0.277146961483,0.960827540061,0.0,0.0,-0.0109955742876,0.0,0.0,0.0
1105,0.0,0.0,-0.276895407927,0.960900064038,0.0,0.0,-0.027227136331099997,0.0,0.0,0.0
1106,0.0,0.0,-0.276979261222,0.960875896697,0.0,0.0,0.0132645023152,0.0,0.0,0.0
1107,0.0,0.0,-0.277314653302,0.9607791541580001,0.0,0.0,-0.0134390352404,0.0,0.0,0.0
1108,0.0,0.0,-0.27723080844799997,0.960803350768,0.0,0.0,-0.0219911485751,0.0,0.0,0.0
1109,0.0,0.0,-0.278069161877,0.960561055432,0.0,0.0,0.0150098315672,0.0,0.0,0.0
1110,0.0,0.0,-0.278236807172,0.9605125085780001,0.0,0.0,-0.0293215314335,0.0,0.0,0.0
1111,0.0,0.0,-0.278236807172,0.9605125085780001,0.0,0.0,-0.0197222205475,0.0,0.0,0.0
1112,0.0,0.0,-0.27907490641,0.960269335454,0.0,0.0,0.004014257279590001,0.0,0.0,0.0
1113,0.0,0.0,-0.27915870465500003,0.960244977917,0.0,0.0,-0.00610865238198,0.0,0.0,0.0
1114,0.0,0.0,-0.278991106039,0.960293685677,0.0,0.0,-0.009075712110370001,0.0,0.0,0.0
1115,0.0,0.0,-0.27966144946,0.9600986791399999,0.0,0.0,0.010821041362399999,0.0,0.0,0.0
1116,0.0,0.0,-0.27957766398,0.9601230805490001,0.0,0.0,0.007679448708779999,0.0,0.0,0.0
1117,0.0,0.0,-0.27957766398,0.9601230805490001,0.0,0.0,-0.0012217304764,0.0,0.0,0.0
1118,0.0,0.0,-0.280080344903,0.959976562422,0.0,0.0,-0.0298451302091,0.0,0.0,0.0
1119,0.0,0.0,-0.280331656578,0.959903204662,0.0,0.0,-0.025830872929500003,0.0,0.0,0.0
1120,0.0,0.0,-0.280499187022,0.9598542629379999,0.0,0.0,0.0136135681656,0.0,0.0,0.0
1121,0.0,0.0,-0.28041542286800003,0.959878737455,0.0,0.0,0.009250245035569999,0.0,0.0,0.0
1122,0.0,0.0,-0.280499187022,0.9598542629379999,0.0,0.0,0.0013962634016,0.0,0.0,0.0
1123,0.0,0.0,-0.28083422227,0.959756291775,0.0,0.0,-0.005759586531579999,0.0,0.0,0.0
1124,0.0,0.0,-0.280917975737,0.959731780711,0.0,0.0,-0.00977384381117,0.0,0.0,0.0
1125,0.0,0.0,-0.280917975737,0.959731780711,0.0,0.0,0.00942477796077,0.0,0.0,0.0
1126,0.0,0.0,-0.281085476253,0.9596827366580001,0.0,0.0,-0.0179768912955,0.0,0.0,0.0
1127,0.0,0.0,-0.281252968206,0.959633663371,0.0,0.0,-0.0164060949687,0.0,0.0,0.0
1128,0.0,0.0,-0.281671660596,0.959510852267,0.0,0.0,-0.006981317007979999,0.0,0.0,0.0
1129,0.0,0.0,-0.281336710971,0.959609115766,0.0,0.0,0.007853981633970001,0.0,0.0,0.0
1130,0.0,0.0,-0.281671660596,0.959510852267,0.0,0.0,-0.030717794835099996,0.0,0.0,0.0
1131,0.0,0.0,-0.2820065759,0.9594124718539999,0.0,0.0,-0.013962634016,0.0,0.0,0.0
1132,0.0,0.0,-0.281755392641,0.959486268124,0.0,0.0,0.015533430342700001,0.0,0.0,0.0
1133,0.0,0.0,-0.28183912254099996,0.9594616766740001,0.0,0.0,-0.00471238898038,0.0,0.0,0.0
1134,0.0,0.0,-0.282592594976,0.959240024845,0.0,0.0,-0.022340214425499997,0.0,0.0,0.0
1135,0.0,0.0,-0.282090299359,0.959387858485,0.0,0.0,0.0291469985083,0.0,0.0,0.0
1136,0.0,0.0,-0.282090299359,0.959387858485,0.0,0.0,-0.0012217304764,0.0,0.0,0.0
1137,0.0,0.0,-0.281336710971,0.959609115766,0.0,0.0,0.0212930168743,0.0,0.0,0.0
1138,0.0,0.0,-0.281420451592,0.959584560852,0.0,0.0,-0.011344640138,0.0,0.0,0.0
1139,0.0,0.0,-0.281504190071,0.959559998631,0.0,0.0,-0.011868238913600001,0.0,0.0,0.0
1140,0.0,0.0,-0.282090299359,0.959387858485,0.0,0.0,-0.0280998009571,0.0,0.0,0.0
1141,0.0,0.0,-0.282425171705,0.9592893319470001,0.0,0.0,-0.0219911485751,0.0,0.0,0.0
1142,0.0,0.0,-0.282257739831,0.959338609827,0.0,0.0,0.0436332312999,0.0,0.0,0.0
1143,0.0,0.0,-0.281922850294,0.9594370779170001,0.0,0.0,-0.0183259571459,0.0,0.0,0.0
1144,0.0,0.0,-0.282425171705,0.9592893319470001,0.0,0.0,-0.0280998009571,0.0,0.0,0.0
1145,0.0,0.0,-0.282676303383,0.9592153603370001,0.0,0.0,-0.0312413936107,0.0,0.0,0.0
1146,0.0,0.0,-0.282592594976,0.959240024845,0.0,0.0,0.0242600766027,0.0,0.0,0.0
1147,0.0,0.0,-0.282425171705,0.9592893319470001,0.0,0.0,0.0150098315672,0.0,0.0,0.0
1148,0.0,0.0,-0.282508884416,0.959264682049,0.0,0.0,-0.027052603405900003,0.0,0.0,0.0
1149,0.0,0.0,-0.2831785086,0.9590672198899999,0.0,0.0,-0.0134390352404,0.0,0.0,0.0
1150,0.0,0.0,-0.283345893093,0.959017781309,0.0,0.0,-0.0101229096616,0.0,0.0,0.0
1151,0.0,0.0,-0.28284371374,0.9591660094050001,0.0,0.0,0.0116937059884,0.0,0.0,0.0
1152,0.0,0.0,-0.2831785086,0.9590672198899999,0.0,0.0,-0.0375245789179,0.0,0.0,0.0
1153,0.0,0.0,-0.283931670816,0.958844516232,0.0,0.0,0.0195476876223,0.0,0.0,0.0
1154,0.0,0.0,-0.28359695364799997,0.958943568664,0.0,0.0,-0.00471238898038,0.0,0.0,0.0
1155,0.0,0.0,-0.28376431655400003,0.958894057052,0.0,0.0,-0.039618974020300006,0.0,0.0,0.0
1156,0.0,0.0,-0.284517342588,0.958670893355,0.0,0.0,0.0101229096616,0.0,0.0,0.0
1157,0.0,0.0,-0.28401534470400003,0.958819734868,0.0,0.0,0.0101229096616,0.0,0.0,0.0
1158,0.0,0.0,-0.284266353388,0.9587453469670001,0.0,0.0,-0.027052603405900003,0.0,0.0,0.0
1159,0.0,0.0,-0.28493561457899996,0.9585466579899999,0.0,0.0,0.00488692190558,0.0,0.0,0.0
1160,0.0,0.0,-0.284517342588,0.958670893355,0.0,0.0,-0.004014257279590001,0.0,0.0,0.0
1161,0.0,0.0,-0.284768312288,0.9585963740369999,0.0,0.0,-0.035081117965099995,0.0,0.0,0.0
1162,0.0,0.0,-0.28510290819,0.9584969127449999,0.0,0.0,-0.039618974020300006,0.0,0.0,0.0
1163,0.0,0.0,-0.285437469354,0.9583973346629999,0.0,0.0,0.0160570291183,0.0,0.0,0.0
1164,0.0,0.0,-0.28493561457899996,0.9585466579899999,0.0,0.0,-0.000698131700798,0.0,0.0,0.0
1165,0.0,0.0,-0.284684657889,0.95862122111,0.0,0.0,-0.0190240888467,0.0,0.0,0.0
1166,0.0,0.0,-0.285270193117,0.958447138302,0.0,0.0,-0.0427605666739,0.0,0.0,0.0
1167,0.0,0.0,-0.28518655174,0.958472029173,0.0,0.0,0.0301941960595,0.0,0.0,0.0
1168,0.0,0.0,-0.285270193117,0.958447138302,0.0,0.0,-0.0020943951023900003,0.0,0.0,0.0
1169,0.0,0.0,-0.28518655174,0.958472029173,0.0,0.0,0.00453785605519,0.0,0.0,0.0
1170,0.0,0.0,-0.286106487302,0.9581978281769999,0.0,0.0,-0.0322885911619,0.0,0.0,0.0
1171,0.0,0.0,-0.286106487302,0.9581978281769999,0.0,0.0,0.00750491578358,0.0,0.0,0.0
1172,0.0,0.0,-0.285688367405,0.958322574465,0.0,0.0,-0.00244346095279,0.0,0.0,0.0
1173,0.0,0.0,-0.285688367405,0.958322574465,0.0,0.0,-0.00226892802759,0.0,0.0,0.0
1174,0.0,0.0,-0.286106487302,0.9581978281769999,0.0,0.0,-0.0329867228627,0.0,0.0,0.0
1175,0.0,0.0,-0.286357333099,0.958122892838,0.0,0.0,-0.0207694180987,0.0,0.0,0.0
1176,0.0,0.0,-0.286106487302,0.9581978281769999,0.0,0.0,0.00977384381117,0.0,0.0,0.0
1177,0.0,0.0,-0.286022867677,0.9582227920299999,0.0,0.0,0.0162315620435,0.0,0.0,0.0
1178,0.0,0.0,-0.286022867677,0.9582227920299999,0.0,0.0,-0.0115191730632,0.0,0.0,0.0
1179,0.0,0.0,-0.286942563604,0.957947788344,0.0,0.0,-0.0169296937443,0.0,0.0,0.0
1180,0.0,0.0,-0.28660815927,0.9580478918299999,0.0,0.0,0.0038397243543899996,0.0,0.0,0.0
1181,0.0,0.0,-0.28660815927,0.9580478918299999,0.0,0.0,0.0132645023152,0.0,0.0,0.0
1182,0.0,0.0,-0.287026159226,0.957922744234,0.0,0.0,-0.011868238913600001,0.0,0.0,0.0
1183,0.0,0.0,-0.286942563604,0.957947788344,0.0,0.0,-0.014137166941200001,0.0,0.0,0.0
1184,0.0,0.0,-0.287444104536,0.957797414262,0.0,0.0,-0.00820304748437,0.0,0.0,0.0
1185,0.0,0.0,-0.287861995122,0.95767190194,0.0,0.0,-0.0012217304764,0.0,0.0,0.0
1186,0.0,0.0,-0.28769484546,0.957722128749,0.0,0.0,-0.0226892802759,0.0,0.0,0.0
1187,0.0,0.0,-0.287945566665,0.9576467775949999,0.0,0.0,0.007853981633970001,0.0,0.0,0.0
1188,0.0,0.0,-0.288530506031,0.957470702993,0.0,0.0,-0.0158824961931,0.0,0.0,0.0
1189,0.0,0.0,-0.288363391474,0.9575210464830001,0.0,0.0,-0.027227136331099997,0.0,0.0,0.0
1190,0.0,0.0,-0.288446949851,0.9574958783840001,0.0,0.0,0.014137166941200001,0.0,0.0,0.0
1191,0.0,0.0,-0.288196268134,0.957571360805,0.0,0.0,0.0242600766027,0.0,0.0,0.0
1192,0.0,0.0,-0.288697611798,0.957420330337,0.0,0.0,-0.0214675497995,0.0,0.0,0.0
1193,0.0,0.0,-0.288530506031,0.957470702993,0.0,0.0,0.0242600766027,0.0,0.0,0.0
1194,0.0,0.0,-0.28911533773000003,0.9572942711040001,0.0,0.0,-0.028972465583099998,0.0,0.0,0.0
1195,0.0,0.0,-0.288781161384,0.957395133072,0.0,0.0,-0.020071286397900002,0.0,0.0,0.0
1196,0.0,0.0,-0.289198876314,0.957269037387,0.0,0.0,-0.0466002910282,0.0,0.0,0.0
1197,0.0,0.0,-0.289449478848,0.9571932924940001,0.0,0.0,0.00610865238198,0.0,0.0,0.0
1198,0.0,0.0,-0.289616536184,0.9571427594509999,0.0,0.0,-0.0280998009571,0.0,0.0,0.0
1199,0.0,0.0,-0.289533008618,0.9571680296170001,0.0,0.0,0.028274333882299996,0.0,0.0,0.0
1200,0.0,0.0,-0.289616536184,0.9571427594509999,0.0,0.0,-0.0321140582367,0.0,0.0,0.0
1201,0.0,0.0,-0.299457129666,0.954109756523,0.0,0.0,-0.37524578917900003,0.0,0.0,0.0
1202,0.0,0.0,-0.306858322026,0.9517552049779999,0.0,0.0,-0.246091424531,0.0,0.0,0.0
1203,0.0,0.0,-0.30893399786,0.951083479494,0.0,0.0,-0.225671072283,0.0,0.0,0.0
1204,0.0,0.0,-0.315814642245,0.9488209060430001,0.0,0.0,-0.261973920724,0.0,0.0,0.0
1205,0.0,0.0,-0.318297564451,0.947990854631,0.0,0.0,-0.28064894372099997,0.0,0.0,0.0
1206,0.0,0.0,-0.3265581205,0.945177123049,0.0,0.0,-0.301418361819,0.0,0.0,0.0
1207,0.0,0.0,-0.33955886452399997,0.94058480613,0.0,0.0,-0.643328362285,0.0,0.0,0.0
1208,0.0,0.0,-0.357064076459,0.9340798923549999,0.0,0.0,-0.522726110972,0.0,0.0,0.0
1209,0.0,0.0,-0.370152132628,0.928971150634,0.0,0.0,-0.49829150144400003,0.0,0.0,0.0
1210,0.0,0.0,-0.386469516737,0.9223021807590001,0.0,0.0,-0.570722665402,0.0,0.0,0.0
1211,0.0,0.0,-0.400828784059,0.9161529816959999,0.0,0.0,-0.573166126355,0.0,0.0,0.0
1212,0.0,0.0,-0.418025632026,0.908435232127,0.0,0.0,-0.595680873706,0.0,0.0,0.0
1213,0.0,0.0,-0.43224314168899997,0.9017570994799999,0.0,0.0,-0.5324999547829999,0.0,0.0,0.0
1214,0.0,0.0,-0.444713343089,0.89567295509,0.0,0.0,-0.382576172037,0.0,0.0,0.0
1215,0.0,0.0,-0.456088622262,0.889934361986,0.0,0.0,-0.529532895055,0.0,0.0,0.0
1216,0.0,0.0,-0.47347340441200003,0.880808114923,0.0,0.0,-0.622733477112,0.0,0.0,0.0
1217,0.0,0.0,-0.47853861371399997,0.8780665095450001,0.0,0.0,-0.616101225954,0.0,0.0,0.0
1218,0.0,0.0,-0.492879209759,0.870097744272,0.0,0.0,-0.5675810727489999,0.0,0.0,0.0
1219,0.0,0.0,-0.507839097349,0.861451943641,0.0,0.0,-0.48397980157799997,0.0,0.0,0.0
1220,0.0,0.0,-0.5114430730039999,0.859317160934,0.0,0.0,-0.44401176170699996,0.0,0.0,0.0
1221,0.0,0.0,-0.522572969617,0.852594564506,0.0,0.0,-0.5035274892,0.0,0.0,0.0
1222,0.0,0.0,-0.538697265115,0.84249941042,0.0,0.0,-0.6339035843240001,0.0,0.0,0.0
1223,0.0,0.0,-0.54354075151,0.839382780052,0.0,0.0,-0.619068285682,0.0,0.0,0.0
1224,0.0,0.0,-0.5591205541650001,0.8290863681849999,0.0,0.0,-0.53407075111,0.0,0.0,0.0
1225,0.0,0.0,-0.570928524484,0.8209997685320001,0.0,0.0,-0.48921578933399995,0.0,0.0,0.0
1226,0.0,0.0,-0.574576791052,0.818450677307,0.0,0.0,-0.472460628515,0.0,0.0,0.0
1227,0.0,0.0,-0.587997032301,0.808863084833,0.0,0.0,-0.545240858323,0.0,0.0,0.0
1228,0.0,0.0,-0.592294464767,0.8057215815690001,0.0,0.0,-0.5801474433630001,0.0,0.0,0.0
1229,0.0,0.0,-0.6079302976950001,0.793990398648,0.0,0.0,-0.5970771371069999,0.0,0.0,0.0
1230,0.0,0.0,-0.6213529294569999,0.7835308143619999,0.0,0.0,-0.599346065135,0.0,0.0,0.0
1231,0.0,0.0,-0.625583123811,0.780157519481,0.0,0.0,-0.575958653158,0.0,0.0,0.0
1232,0.0,0.0,-0.638700672306,0.769455295125,0.0,0.0,-0.479965544298,0.0,0.0,0.0
1233,0.0,0.0,-0.642051963769,0.766661121892,0.0,0.0,-0.47699848456999994,0.0,0.0,0.0
1234,0.0,0.0,-0.653222400758,0.7571660948219999,0.0,0.0,-0.557283630162,0.0,0.0,0.0
1235,0.0,0.0,-0.667702638429,0.744428093663,0.0,0.0,-0.590270353024,0.0,0.0,0.0
1236,0.0,0.0,-0.679889387533,0.733314680557,0.0,0.0,-0.603011256564,0.0,0.0,0.0
1237,0.0,0.0,-0.693276057822,0.720672122155,0.0,0.0,-0.526740368252,0.0,0.0,0.0
1238,0.0,0.0,-0.702898299792,0.711290362756,0.0,0.0,-0.462512251778,0.0,0.0,0.0
1239,0.0,0.0,-0.715082978952,0.699039579147,0.0,0.0,-0.593761011528,0.0,0.0,0.0
1240,0.0,0.0,-0.727173991201,0.686453193248,0.0,0.0,-0.625526003915,0.0,0.0,0.0
1241,0.0,0.0,-0.7402767997409999,0.6723022086570001,0.0,0.0,-0.562868683768,0.0,0.0,0.0
1242,0.0,0.0,-0.7501687771209999,0.661246403266,0.0,0.0,-0.5066690818540001,0.0,0.0,0.0
1243,0.0,0.0,-0.754423248635,0.656388270705,0.0,0.0,-0.453785605519,0.0,0.0,0.0
1244,0.0,0.0,-0.7634015984870001,0.6459241437100001,0.0,0.0,-0.51591932689,0.0,0.0,0.0
1245,0.0,0.0,-0.775440644294,0.631420467816,0.0,0.0,-0.601440460237,0.0,0.0,0.0
1246,0.0,0.0,-0.7789550490610001,0.627079764896,0.0,0.0,-0.60824724432,0.0,0.0,0.0
1247,0.0,0.0,-0.78978046136,0.6133896174979999,0.0,0.0,-0.6365215782020001,0.0,0.0,0.0
1248,0.0,0.0,-0.793353340291,0.608761429009,0.0,0.0,-0.63041292582,0.0,0.0,0.0
1249,0.0,0.0,-0.804582973635,0.593840246647,0.0,0.0,-0.530231026756,0.0,0.0,0.0
1250,0.0,0.0,-0.807372435998,0.590042159163,0.0,0.0,-0.508239878181,0.0,0.0,0.0
1251,0.0,0.0,-0.8167422735609999,0.577002650408,0.0,0.0,-0.505447351378,0.0,0.0,0.0
1252,0.0,0.0,-0.8253599330850001,0.564606925974,0.0,0.0,-0.583987167717,0.0,0.0,0.0
1253,0.0,0.0,-0.8285004040189999,0.559988464649,0.0,0.0,-0.611563369899,0.0,0.0,0.0
1254,0.0,0.0,-0.836668732904,0.5477092580749999,0.0,0.0,-0.22985986248799997,0.0,0.0,0.0
1255,0.0,0.0,-0.837528040042,0.546394346734,0.0,0.0,-0.160046692408,0.0,0.0,0.0
1256,0.0,0.0,-0.840708393566,0.541488131899,0.0,0.0,-0.180467044656,0.0,0.0,0.0
1257,0.0,0.0,-0.844748502427,0.535163496183,0.0,0.0,-0.320616983591,0.0,0.0,0.0
1258,0.0,0.0,-0.850030620565,0.526733276054,0.0,0.0,-0.324282175021,0.0,0.0,0.0
1259,0.0,0.0,-0.8540051388850001,0.520264569962,0.0,0.0,-0.16877333866799998,0.0,0.0,0.0
1260,0.0,0.0,-0.8539143225810001,0.5204136140519999,0.0,0.0,-0.0195476876223,0.0,0.0,0.0
1261,0.0,0.0,-0.853823480265,0.5205626422899999,0.0,0.0,0.021118483949099997,0.0,0.0,0.0
1262,0.0,0.0,-0.854232065826,0.519891890411,0.0,0.0,-0.028972465583099998,0.0,0.0,0.0
1263,0.0,0.0,-0.8544588301330001,0.51951911188,0.0,0.0,-0.005759586531579999,0.0,0.0,0.0
1264,0.0,0.0,-0.854549490308,0.519369972768,0.0,0.0,0.005759586531579999,0.0,0.0,0.0
1265,0.0,0.0,-0.854776026856,0.518997055784,0.0,0.0,-0.041015237421900004,0.0,0.0,0.0
1266,0.0,0.0,-0.855002400666,0.51862403999,0.0,0.0,0.00157079632679,0.0,0.0,0.0
1267,0.0,0.0,-0.855228611695,0.518250925458,0.0,0.0,-0.0144862327916,0.0,0.0,0.0
1268,0.0,0.0,-0.85549985,0.5178030577839999,0.0,0.0,-0.020943951023900002,0.0,0.0,0.0
1269,0.0,0.0,-0.855590210652,0.517653737006,0.0,0.0,-0.0165806278939,0.0,0.0,0.0
1270,0.0,0.0,-0.855590210652,0.517653737006,0.0,0.0,-0.00733038285838,0.0,0.0,0.0
1271,0.0,0.0,-0.855996511019,0.516981598438,0.0,0.0,-0.0150098315672,0.0,0.0,0.0
1272,0.0,0.0,-0.856041622915,0.516906896682,0.0,0.0,-0.008901179185170001,0.0,0.0,0.0
1273,0.0,0.0,-0.8561769194859999,0.5166827677979999,0.0,0.0,-0.00942477796077,0.0,0.0,0.0
1274,0.0,0.0,-0.8562670845999999,0.516533328867,0.0,0.0,-0.0115191730632,0.0,0.0,0.0
1275,0.0,0.0,-0.856402283364,0.516309140969,0.0,0.0,-0.012217304764,0.0,0.0,0.0
1276,0.0,0.0,-0.856492383265,0.516159662711,0.0,0.0,-0.0111701072128,0.0,0.0,0.0
1277,0.0,0.0,-0.856402283364,0.516309140969,0.0,0.0,0.004363323129989999,0.0,0.0,0.0
1278,0.0,0.0,-0.856447336576,0.5162344038059999,0.0,0.0,-0.00872664625997,0.0,0.0,0.0
1279,0.0,0.0,-0.8565824570749999,0.516010168729,0.0,0.0,-0.0310668606855,0.0,0.0,0.0
1280,0.0,0.0,-0.857032434676,0.515262463132,0.0,0.0,-0.0225147473507,0.0,0.0,0.0
1281,0.0,0.0,-0.857122351887,0.515112874907,0.0,0.0,-0.0144862327916,0.0,0.0,0.0
1282,0.0,0.0,-0.8575715462469999,0.514364698505,0.0,0.0,-0.028274333882299996,0.0,0.0,0.0
1283,0.0,0.0,-0.857616429769,0.514289859311,0.0,0.0,0.000174532925199,0.0,0.0,0.0
1284,0.0,0.0,-0.85766130676,0.514215016201,0.0,0.0,-0.0319395253115,0.0,0.0,0.0
1285,0.0,0.0,-0.8580200875280001,0.513616130392,0.0,0.0,0.00855211333477,0.0,0.0,0.0
1286,0.0,0.0,-0.85833367766,0.5130918999499999,0.0,0.0,-0.029496064358700003,0.0,0.0,0.0
1287,0.0,0.0,-0.858915209491,0.512117821312,0.0,0.0,-0.0616101225954,0.0,0.0,0.0
1288,0.0,0.0,-0.859406411501,0.511293086077,0.0,0.0,0.006981317007979999,0.0,0.0,0.0
1289,0.0,0.0,-0.859941365049,0.510392837604,0.0,0.0,-0.0431096325243,0.0,0.0,0.0
1290,0.0,0.0,-0.860119473365,0.5100926303509999,0.0,0.0,-0.0197222205475,0.0,0.0,0.0
1291,0.0,0.0,-0.8603864393260001,0.509642202947,0.0,0.0,0.009250245035569999,0.0,0.0,0.0
1292,0.0,0.0,-0.8607420270039999,0.5090414157500001,0.0,0.0,-0.036302848441499995,0.0,0.0,0.0
1293,0.0,0.0,-0.86078644597,0.5089662999,0.0,0.0,0.0012217304764,0.0,0.0,0.0
1294,0.0,0.0,-0.861230275036,0.508214928314,0.0,0.0,-0.054454272662199994,0.0,0.0,0.0
1295,0.0,0.0,-0.8617177294730001,0.507387972573,0.0,0.0,0.00994837673637,0.0,0.0,0.0
1296,0.0,0.0,-0.861673448238,0.507463169699,0.0,0.0,0.004363323129989999,0.0,0.0,0.0
1297,0.0,0.0,-0.8617177294730001,0.507387972573,0.0,0.0,0.006632251157579999,0.0,0.0,0.0
1298,0.0,0.0,-0.8617620041449999,0.507312771584,0.0,0.0,-0.017278759594700002,0.0,0.0,0.0
1299,0.0,0.0,-0.862646118978,0.505807941232,0.0,0.0,-0.05654866776459999,0.0,0.0,0.0
1300,0.0,0.0,-0.8627785096230001,0.505582083675,0.0,0.0,-0.0226892802759,0.0,0.0,0.0
1301,0.0,0.0,-0.862954938496,0.505280886365,0.0,0.0,-0.0125663706144,0.0,0.0,0.0
1302,0.0,0.0,-0.862954938496,0.505280886365,0.0,0.0,0.006981317007979999,0.0,0.0,0.0
1303,0.0,0.0,-0.863395550607,0.5045276238149999,0.0,0.0,-0.065624379875,0.0,0.0,0.0
1304,0.0,0.0,-0.863879464488,0.503698591259,0.0,0.0,-0.017453292519900004,0.0,0.0,0.0
1305,0.0,0.0,-0.864011302865,0.503472410885,0.0,0.0,-0.0328121899375,0.0,0.0,0.0
1306,0.0,0.0,-0.8644064626479999,0.502793662781,0.0,0.0,0.00226892802759,0.0,0.0,0.0
1307,0.0,0.0,-0.864669606291,0.502340991714,0.0,0.0,-0.015358897417600001,0.0,0.0,0.0
1308,0.0,0.0,-0.8648449036939999,0.502039134484,0.0,0.0,-0.0298451302091,0.0,0.0,0.0
1309,0.0,0.0,-0.8651951823430001,0.501435236546,0.0,0.0,-0.013089969390000001,0.0,0.0,0.0
1310,0.0,0.0,-0.8659817672560001,0.50007557307,0.0,0.0,-0.057944931166199996,0.0,0.0,0.0
1311,0.0,0.0,-0.866199883945,0.49969766965,0.0,0.0,0.00820304748437,0.0,0.0,0.0
1312,0.0,0.0,-0.866156273799,0.49977325794699995,0.0,0.0,0.00418879020479,0.0,0.0,0.0
1313,0.0,0.0,-0.866243487495,0.499622077548,0.0,0.0,-0.025830872929500003,0.0,0.0,0.0
1314,0.0,0.0,-0.866592078379,0.499017203803,0.0,0.0,-0.00453785605519,0.0,0.0,0.0
1315,0.0,0.0,-0.867027223011,0.498260769635,0.0,0.0,-0.027052603405900003,0.0,0.0,0.0
1316,0.0,0.0,-0.867331431408,0.497731039913,0.0,0.0,-0.0431096325243,0.0,0.0,0.0
1317,0.0,0.0,-0.867505119472,0.497428253812,0.0,0.0,-0.037873644768300005,0.0,0.0,0.0
1318,0.0,0.0,-0.867591923867,0.49727683803000006,0.0,0.0,0.00523598775598,0.0,0.0,0.0
1319,0.0,0.0,-0.867722080905,0.49704968595700005,0.0,0.0,-0.000174532925199,0.0,0.0,0.0
1320,0.0,0.0,-0.8677654533689999,0.49697396102799996,0.0,0.0,-0.021118483949099997,0.0,0.0,0.0
1321,0.0,0.0,-0.868198814489,0.496216503675,0.0,0.0,-0.0125663706144,0.0,0.0,0.0
1322,0.0,0.0,-0.868285407383,0.496064966839,0.0,0.0,-0.0134390352404,0.0,0.0,0.0
1323,0.0,0.0,-0.868285407383,0.496064966839,0.0,0.0,0.0005235987755980001,0.0,0.0,0.0
1324,0.0,0.0,-0.8683286939120001,0.495989192755,0.0,0.0,-0.007679448708779999,0.0,0.0,0.0
1325,0.0,0.0,-0.868761195445,0.495231244257,0.0,0.0,-0.0476474885794,0.0,0.0,0.0
1326,0.0,0.0,-0.869020378819,0.494776294095,0.0,0.0,-0.0649262481742,0.0,0.0,0.0
1327,0.0,0.0,-0.8696672947669999,0.493638325511,0.0,0.0,0.00174532925199,0.0,0.0,0.0
1328,0.0,0.0,-0.869753437661,0.493486532416,0.0,0.0,-0.010821041362399999,0.0,0.0,0.0
1329,0.0,0.0,-0.869753437661,0.493486532416,0.0,0.0,-0.00523598775598,0.0,0.0,0.0
1330,0.0,0.0,-0.870398664688,0.49234760536600003,0.0,0.0,-0.041189770347099995,0.0,0.0,0.0
1331,0.0,0.0,-0.8705275311599999,0.492119718658,0.0,0.0,-0.0169296937443,0.0,0.0,0.0
1332,0.0,0.0,-0.8705275311599999,0.492119718658,0.0,0.0,-0.0134390352404,0.0,0.0,0.0
1333,0.0,0.0,-0.870913772551,0.491435856222,0.0,0.0,-0.022340214425499997,0.0,0.0,0.0
1334,0.0,0.0,-0.8710852629629999,0.491131820032,0.0,0.0,-0.0438077642251,0.0,0.0,0.0
1335,0.0,0.0,-0.871684643425,0.490067222346,0.0,0.0,-0.006632251157579999,0.0,0.0,0.0
1336,0.0,0.0,-0.871855656047,0.48976291715400005,0.0,0.0,-0.037873644768300005,0.0,0.0,0.0
1337,0.0,0.0,-0.872197362572,0.489154127779,0.0,0.0,-0.0188495559215,0.0,0.0,0.0
1338,0.0,0.0,-0.872666514903,0.488316653174,0.0,0.0,-0.0186750229963,0.0,0.0,0.0
1339,0.0,0.0,-0.873049768714,0.487631111957,0.0,0.0,-0.057421332390599995,0.0,0.0,0.0
1340,0.0,0.0,-0.873347482699,0.487097705254,0.0,0.0,-0.0012217304764,0.0,0.0,0.0
1341,0.0,0.0,-0.873857091263,0.486182870995,0.0,0.0,-0.017278759594700002,0.0,0.0,0.0
1342,0.0,0.0,-0.8739419328720001,0.486030346756,0.0,0.0,-0.022340214425499997,0.0,0.0,0.0
1343,0.0,0.0,-0.8738146604770001,0.486259127561,0.0,0.0,0.000872664625997,0.0,0.0,0.0
1344,0.0,0.0,-0.8740267478589999,0.485877807712,0.0,0.0,-0.0628318530718,0.0,0.0,0.0
1345,0.0,0.0,-0.874746600027,0.484580628731,0.0,0.0,-0.056025068989000004,0.0,0.0,0.0
1346,0.0,0.0,-0.8744504233759999,0.485114890576,0.0,0.0,0.028274333882299996,0.0,0.0,0.0
1347,0.0,0.0,-0.8743657415360001,0.485267503577,0.0,0.0,0.012217304764,0.0,0.0,0.0
1348,0.0,0.0,-0.8748311619779999,0.484427949268,0.0,0.0,-0.0588175957922,0.0,0.0,0.0
1349,0.0,0.0,-0.8752535719490001,0.4836643307,0.0,0.0,-0.0654498469498,0.0,0.0,0.0
1350,0.0,0.0,-0.876096391937,0.48213598915100003,0.0,0.0,-0.0171042266695,0.0,0.0,0.0
1351,0.0,0.0,-0.875337973968,0.483511562768,0.0,0.0,0.021816615649900003,0.0,0.0,0.0
1352,0.0,0.0,-0.875337973968,0.483511562768,0.0,0.0,0.000698131700798,0.0,0.0,0.0
1353,0.0,0.0,-0.875928041357,0.482441775103,0.0,0.0,-0.07487462491060001,0.0,0.0,0.0
1354,0.0,0.0,-0.8762225848190001,0.481906611132,0.0,0.0,-0.0642281164734,0.0,0.0,0.0
1355,0.0,0.0,-0.8762646357680001,0.48183014445100003,0.0,0.0,0.0216420827247,0.0,0.0,0.0
1356,0.0,0.0,-0.8762225848190001,0.481906611132,0.0,0.0,0.010646508437200001,0.0,0.0,0.0
1357,0.0,0.0,-0.876390748574,0.48160072239699997,0.0,0.0,-0.0328121899375,0.0,0.0,0.0
1358,0.0,0.0,-0.8768945990449999,0.480682704252,0.0,0.0,-0.0171042266695,0.0,0.0,0.0
1359,0.0,0.0,-0.8768526482260001,0.480759225911,0.0,0.0,0.015533430342700001,0.0,0.0,0.0
1360,0.0,0.0,-0.8769784806470001,0.480529649952,0.0,0.0,-0.0190240888467,0.0,0.0,0.0
1361,0.0,0.0,-0.8769784806470001,0.480529649952,0.0,0.0,0.0102974425868,0.0,0.0,0.0
1362,0.0,0.0,-0.877146163706,0.480223497443,0.0,0.0,-0.0382227106187,0.0,0.0,0.0
1363,0.0,0.0,-0.8773974878919999,0.479764158979,0.0,0.0,-0.009250245035569999,0.0,0.0,0.0
1364,0.0,0.0,-0.877774023131,0.47907490470299996,0.0,0.0,-0.00715584993318,0.0,0.0,0.0
1365,0.0,0.0,-0.8777322126170001,0.479151503112,0.0,0.0,-0.026005405854700004,0.0,0.0,0.0
1366,0.0,0.0,-0.8778158269609999,0.478998302645,0.0,0.0,-0.0038397243543899996,0.0,0.0,0.0
1367,0.0,0.0,-0.878233497535,0.478232081533,0.0,0.0,-0.0136135681656,0.0,0.0,0.0
1368,0.0,0.0,-0.8781500169149999,0.478385354909,0.0,0.0,-0.0214675497995,0.0,0.0,0.0
1369,0.0,0.0,-0.878733819363,0.47731213551299995,0.0,0.0,-0.010821041362399999,0.0,0.0,0.0
1370,0.0,0.0,-0.8789420024150001,0.476928670128,0.0,0.0,0.00715584993318,0.0,0.0,0.0
1371,0.0,0.0,-0.878817112662,0.47715876026,0.0,0.0,-0.039793506945500004,0.0,0.0,0.0
1372,0.0,0.0,-0.879607063475,0.47570097107799997,0.0,0.0,-0.014835298642,0.0,0.0,0.0
1373,0.0,0.0,-0.879814543441,0.475317124823,0.0,0.0,-0.0019198621771900001,0.0,0.0,0.0
1374,0.0,0.0,-0.879524024596,0.475854484226,0.0,0.0,-0.0219911485751,0.0,0.0,0.0
1375,0.0,0.0,-0.880353207334,0.47431870123000003,0.0,0.0,-0.044505895925900006,0.0,0.0,0.0
1376,0.0,0.0,-0.8805600841,0.473934529539,0.0,0.0,0.0019198621771900001,0.0,0.0,0.0
1377,0.0,0.0,-0.8804773535089999,0.47408820904700005,0.0,0.0,0.0253072741539,0.0,0.0,0.0
1378,0.0,0.0,-0.880311811867,0.474395524734,0.0,0.0,-0.0382227106187,0.0,0.0,0.0
1379,0.0,0.0,-0.880601439337,0.473857684371,0.0,0.0,-0.0628318530718,0.0,0.0,0.0
1380,0.0,0.0,-0.880932039784,0.473242793164,0.0,0.0,-0.020943951023900002,0.0,0.0,0.0
1381,0.0,0.0,-0.8810971790090001,0.472935261047,0.0,0.0,-0.0370009801423,0.0,0.0,0.0
1382,0.0,0.0,-0.881509557333,0.472166178724,0.0,0.0,0.0038397243543899996,0.0,0.0,0.0
1383,0.0,0.0,-0.881962398116,0.471319772882,0.0,0.0,-0.0301941960595,0.0,0.0,0.0
1384,0.0,0.0,-0.881962398116,0.471319772882,0.0,0.0,0.0019198621771900001,0.0,0.0,0.0
1385,0.0,0.0,-0.881921264348,0.471396736826,0.0,0.0,-0.013089969390000001,0.0,0.0,0.0
1386,0.0,0.0,-0.882003525167,0.47124280534900004,0.0,0.0,-0.009250245035569999,0.0,0.0,0.0
1387,0.0,0.0,-0.882209059663,0.470857913864,0.0,0.0,-0.0518362787842,0.0,0.0,0.0
1388,0.0,0.0,-0.8827836625799999,0.46977974103,0.0,0.0,0.00418879020479,0.0,0.0,0.0
1389,0.0,0.0,-0.882701657102,0.46993380868900003,0.0,0.0,-0.00733038285838,0.0,0.0,0.0
1390,0.0,0.0,-0.8828656411660001,0.46962565906099996,0.0,0.0,-0.04712388980380001,0.0,0.0,0.0
1391,0.0,0.0,-0.8834387381100001,0.468546684981,0.0,0.0,-0.0013962634016,0.0,0.0,0.0
1392,0.0,0.0,-0.8832342119600001,0.468932113235,0.0,0.0,0.023561944901900004,0.0,0.0,0.0
1393,0.0,0.0,-0.883193286551,0.469009188174,0.0,0.0,-0.0394444410951,0.0,0.0,0.0
1394,0.0,0.0,-0.88388810354,0.46769842892700003,0.0,0.0,-0.0185004900711,0.0,0.0,0.0
1395,0.0,0.0,-0.883765630089,0.467929814261,0.0,0.0,0.0134390352404,0.0,0.0,0.0
1396,0.0,0.0,-0.8837247921439999,0.46800693557899997,0.0,0.0,-0.0157079632679,0.0,0.0,0.0
1397,0.0,0.0,-0.884214403215,0.467081244696,0.0,0.0,-0.0158824961931,0.0,0.0,0.0
1398,0.0,0.0,-0.884336654496,0.46684974190300005,0.0,0.0,-0.034906585039900004,0.0,0.0,0.0
1399,0.0,0.0,-0.8844995619179999,0.466541021741,0.0,0.0,-0.0254818070791,0.0,0.0,0.0
1400,0.0,0.0,-0.884662361566,0.46623224473200003,0.0,0.0,-0.0315904594611,0.0,0.0,0.0
1401,0.0,0.0,-0.884784390564,0.466000624692,0.0,0.0,-0.006632251157579999,0.0,0.0,0.0
1402,0.0,0.0,-0.88486570954,0.465846193588,0.0,0.0,-0.0207694180987,0.0,0.0,0.0
1403,0.0,0.0,-0.884987637463,0.465614520325,0.0,0.0,-0.0214675497995,0.0,0.0,0.0
1404,0.0,0.0,-0.88486570954,0.465846193588,0.0,0.0,0.0038397243543899996,0.0,0.0,0.0
1405,0.0,0.0,-0.885068889048,0.465460053753,0.0,0.0,-0.0382227106187,0.0,0.0,0.0
1406,0.0,0.0,-0.8851095047299999,0.46538281515,0.0,0.0,0.0116937059884,0.0,0.0,0.0
1407,0.0,0.0,-0.885150113672,0.465305573002,0.0,0.0,-0.0183259571459,0.0,0.0,0.0
1408,0.0,0.0,-0.885271900051,0.46507382530100005,0.0,0.0,0.00593411945678,0.0,0.0,0.0
1409,0.0,0.0,-0.8853124820280001,0.464996568983,0.0,0.0,-0.013788101090799998,0.0,0.0,0.0
1410,0.0,0.0,-0.88559636707,0.46445567563900003,0.0,0.0,-0.0019198621771900001,0.0,0.0,0.0
1411,0.0,0.0,-0.8857989397799999,0.464069217127,0.0,0.0,-0.0403171057211,0.0,0.0,0.0
1412,0.0,0.0,-0.8858394340860001,0.46399191482,0.0,0.0,0.0005235987755980001,0.0,0.0,0.0
1413,0.0,0.0,-0.8862035792309999,0.46329603511999995,0.0,0.0,-0.000174532925199,0.0,0.0,0.0
1414,0.0,0.0,-0.886324839478,0.46306401169100003,0.0,0.0,-0.0186750229963,0.0,0.0,0.0
1415,0.0,0.0,-0.8862440060629999,0.46321869750399997,0.0,0.0,-0.00314159265359,0.0,0.0,0.0
1416,0.0,0.0,-0.886688255701,0.462367751041,0.0,0.0,-0.0127409035396,0.0,0.0,0.0
1417,0.0,0.0,-0.886849598469,0.46205821028800004,0.0,0.0,-0.0303687289847,0.0,0.0,0.0
1418,0.0,0.0,-0.8870511249690001,0.46167120517899995,0.0,0.0,-0.00942477796077,0.0,0.0,0.0
1419,0.0,0.0,-0.887373216077,0.461051814212,0.0,0.0,-0.0115191730632,0.0,0.0,0.0
1420,0.0,0.0,-0.8872927338400001,0.461206683033,0.0,0.0,-0.013089969390000001,0.0,0.0,0.0
1421,0.0,0.0,-0.887252482586,0.46128411217500004,0.0,0.0,0.0157079632679,0.0,0.0,0.0
1422,0.0,0.0,-0.8879358347319999,0.45996733949100005,0.0,0.0,-0.05270894341019999,0.0,0.0,0.0
1423,0.0,0.0,-0.8880963395229999,0.459657363398,0.0,0.0,-0.0253072741539,0.0,0.0,0.0
1424,0.0,0.0,-0.888216647103,0.45942484456999994,0.0,0.0,-0.0240855436775,0.0,0.0,0.0
1425,0.0,0.0,-0.888216647103,0.45942484456999994,0.0,0.0,0.0,0.0,0.0,0.0
1426,0.0,0.0,-0.888296818337,0.459269814524,0.0,0.0,-0.030717794835099996,0.0,0.0,0.0
1427,0.0,0.0,-0.888577204547,0.45872709922,0.0,0.0,0.0034906585039899997,0.0,0.0,0.0
1428,0.0,0.0,-0.888577204547,0.45872709922,0.0,0.0,-0.0102974425868,0.0,0.0,0.0
1429,0.0,0.0,-0.8888572591789999,0.45818421274,0.0,0.0,0.000174532925199,0.0,0.0,0.0
1430,0.0,0.0,-0.8888172716789999,0.458261778424,0.0,0.0,0.010471975512,0.0,0.0,0.0
1431,0.0,0.0,-0.889216842036,0.457485964637,0.0,0.0,-0.022165681500300002,0.0,0.0,0.0
1432,0.0,0.0,-0.889256761832,0.457408364087,0.0,0.0,-0.005759586531579999,0.0,0.0,0.0
1433,0.0,0.0,-0.889296674855,0.45733076005400003,0.0,0.0,0.00628318530718,0.0,0.0,0.0
1434,0.0,0.0,-0.889336581107,0.45725315253700005,0.0,0.0,-0.0335103216383,0.0,0.0,0.0
1435,0.0,0.0,-0.889496138383,0.45694268765600005,0.0,0.0,-0.044505895925900006,0.0,0.0,0.0
1436,0.0,0.0,-0.88985474595,0.45624393816200004,0.0,0.0,-0.0225147473507,0.0,0.0,0.0
1437,0.0,0.0,-0.889775102808,0.456399240164,0.0,0.0,0.0195476876223,0.0,0.0,0.0
1438,0.0,0.0,-0.88985474595,0.45624393816200004,0.0,0.0,-0.0244346095279,0.0,0.0,0.0
1439,0.0,0.0,-0.889934361986,0.456088622262,0.0,0.0,-0.0160570291183,0.0,0.0,0.0
1440,0.0,0.0,-0.8902525550139999,0.455467219777,0.0,0.0,-0.0317649923863,0.0,0.0,0.0
