,orientation_X,orientation_Y,orientation_Z,orientation_W,angular_velocity_X,angular_velocity_Y,angular_velocity_Z,linear_acceleration_X,linear_acceleration_Y,linear_acceleration_Z
0,0.0,0.0,-0.853323382693,0.5213820140259999,0.0,0.0,0.0,0.0,0.0,0.0
1,0.0,0.0,-0.853323382693,0.5213820140259999,0.0,0.0,0.0,0.0,0.0,0.0
2,0.0,0.0,-0.853323382693,0.5213820140259999,0.0,0.0,0.0,0.0,0.0,0.0
3,0.0,0.0,-0.853323382693,0.5213820140259999,0.0,0.0,0.0,0.0,0.0,0.0
4,0.0,0.0,-0.853323382693,0.5213820140259999,0.0,0.0,0.0,0.0,0.0,0.0
5,0.0,0.0,-0.853323382693,0.5213820140259999,0.0,0.0,0.0,0.0,0.0,0.0
6,0.0,0.0,-0.853323382693,0.5213820140259999,0.0,0.0,0.0,0.0,0.0,0.0
7,0.0,0.0,-0.853323382693,0.5213820140259999,0.0,0.0,0.0,0.0,0.0,0.0
8,0.0,0.0,-0.853323382693,0.5213820140259999,0.0,0.0,0.0,0.0,0.0,0.0
9,0.0,0.0,-0.853323382693,0.5213820140259999,0.0,0.0,0.0,0.0,0.0,0.0
10,0.0,0.0,-0.853323382693,0.5213820140259999,0.0,0.0,0.0,0.0,0.0,0.0
11,0.0,0.0,-0.853323382693,0.5213820140259999,0.0,0.0,0.0,0.0,0.0,0.0
12,0.0,0.0,-0.853323382693,0.5213820140259999,0.0,0.0,0.0,0.0,0.0,0.0
13,0.0,0.0,-0.853323382693,0.5213820140259999,0.0,0.0,0.0,0.0,0.0,0.0
14,0.0,0.0,-0.853323382693,0.5213820140259999,0.0,0.0,0.0,0.0,0.0,0.0
15,0.0,0.0,-0.853323382693,0.5213820140259999,0.0,0.0,0.0,0.0,0.0,0.0
16,0.0,0.0,-0.853323382693,0.5213820140259999,0.0,0.0,0.0,0.0,0.0,0.0
17,0.0,0.0,-0.853323382693,0.5213820140259999,0.0,0.0,0.0,0.0,0.0,0.0
18,0.0,0.0,-0.853323382693,0.5213820140259999,0.0,0.0,0.0,0.0,0.0,0.0
19,0.0,0.0,-0.853323382693,0.5213820140259999,0.0,0.0,0.0,0.0,0.0,0.0
20,0.0,0.0,-0.853323382693,0.5213820140259999,0.0,0.0,0.0,0.0,0.0,0.0
21,0.0,0.0,-0.853323382693,0.5213820140259999,0.0,0.0,0.0,0.0,0.0,0.0
22,0.0,0.0,-0.853323382693,0.5213820140259999,0.0,0.0,0.0,0.0,0.0,0.0
23,0.0,0.0,-0.853323382693,0.5213820140259999,0.0,0.0,0.0,0.0,0.0,0.0
24,0.0,0.0,-0.853323382693,0.5213820140259999,0.0,0.0,0.0,0.0,0.0,0.0
25,0.0,0.0,-0.853323382693,0.5213820140259999,0.0,0.0,0.0,0.0,0.0,0.0
26,0.0,0.0,-0.853323382693,0.5213820140259999,0.0,0.0,-0.0020943951023900003,0.0,0.0,0.0
27,0.0,0.0,-0.853323382693,0.5213820140259999,0.0,0.0,0.000349065850399,0.0,0.0,0.0
28,0.0,0.0,-0.853323382693,0.5213820140259999,0.0,0.0,-0.0012217304764,0.0,0.0,0.0
29,0.0,0.0,-0.8533688786079999,0.521307545528,0.0,0.0,-0.008028514559169999,0.0,0.0,0.0
30,0.0,0.0,-0.85345985094,0.5211585966219999,0.0,0.0,-0.0277507351067,0.0,0.0,0.0
31,0.0,0.0,-0.8540051388850001,0.520264569962,0.0,0.0,-0.023561944901900004,0.0,0.0,0.0
32,0.0,0.0,-0.854095929175,0.520115510024,0.0,0.0,-0.0176278254451,0.0,0.0,0.0
33,0.0,0.0,-0.854141314563,0.520040974113,0.0,0.0,0.00610865238198,0.0,0.0,0.0
34,0.0,0.0,-0.854095929175,0.520115510024,0.0,0.0,0.014835298642,0.0,0.0,0.0
35,0.0,0.0,-0.8542774316990001,0.519817342621,0.0,0.0,-0.0280998009571,0.0,0.0,0.0
36,0.0,0.0,-0.8544588301330001,0.51951911188,0.0,0.0,-0.0432841654495,0.0,0.0,0.0
37,0.0,0.0,-0.85513814682,0.518400183115,0.0,0.0,0.0244346095279,0.0,0.0,0.0
38,0.0,0.0,-0.8548213146379999,0.518922460528,0.0,0.0,-0.00610865238198,0.0,0.0,0.0
39,0.0,0.0,-0.854685431763,0.519146234439,0.0,0.0,0.022863813201099998,0.0,0.0,0.0
40,0.0,0.0,-0.854957138925,0.51869865105,0.0,0.0,-0.045553093477099994,0.0,0.0,0.0
41,0.0,0.0,-0.855590210652,0.517653737006,0.0,0.0,0.008028514559169999,0.0,0.0,0.0
42,0.0,0.0,-0.8554094632879999,0.517952362788,0.0,0.0,-0.013788101090799998,0.0,0.0,0.0
43,0.0,0.0,-0.855770853765,0.517355048151,0.0,0.0,-0.00471238898038,0.0,0.0,0.0
44,0.0,0.0,-0.855680545241,0.517504400461,0.0,0.0,0.00418879020479,0.0,0.0,0.0
45,0.0,0.0,-0.855680545241,0.517504400461,0.0,0.0,0.036302848441499995,0.0,0.0,0.0
46,0.0,0.0,-0.8559062676710001,0.517130990138,0.0,0.0,-0.014137166941200001,0.0,0.0,0.0
47,0.0,0.0,-0.855996511019,0.516981598438,0.0,0.0,-0.007853981633970001,0.0,0.0,0.0
48,0.0,0.0,-0.8558159982510001,0.517280366086,0.0,0.0,-0.0165806278939,0.0,0.0,0.0
49,0.0,0.0,-0.856041622915,0.516906896682,0.0,0.0,-0.0127409035396,0.0,0.0,0.0
50,0.0,0.0,-0.8562670845999999,0.516533328867,0.0,0.0,-0.0483456202802,0.0,0.0,0.0
51,0.0,0.0,-0.8563572236310001,0.5163838742010001,0.0,0.0,0.0261799387799,0.0,0.0,0.0
52,0.0,0.0,-0.856402283364,0.516309140969,0.0,0.0,-0.0204203522483,0.0,0.0,0.0
53,0.0,0.0,-0.856492383265,0.516159662711,0.0,0.0,0.008028514559169999,0.0,0.0,0.0
54,0.0,0.0,-0.857122351887,0.515112874907,0.0,0.0,-0.047996554429800005,0.0,0.0,0.0
55,0.0,0.0,-0.85766130676,0.514215016201,0.0,0.0,-0.0162315620435,0.0,0.0,0.0
56,0.0,0.0,-0.857751041148,0.514065318233,0.0,0.0,0.00296705972839,0.0,0.0,0.0
57,0.0,0.0,-0.857751041148,0.514065318233,0.0,0.0,-0.00279252680319,0.0,0.0,0.0
58,0.0,0.0,-0.8577958985430001,0.513990463377,0.0,0.0,-0.0144862327916,0.0,0.0,0.0
59,0.0,0.0,-0.8580649057240001,0.5135412520579999,0.0,0.0,-0.0197222205475,0.0,0.0,0.0
60,0.0,0.0,-0.858109717385,0.513466369814,0.0,0.0,-0.00157079632679,0.0,0.0,0.0
61,0.0,0.0,-0.858378450107,0.513016994252,0.0,0.0,0.00296705972839,0.0,0.0,0.0
62,0.0,0.0,-0.858244113158,0.5132416996220001,0.0,0.0,-0.012042771838799999,0.0,0.0,0.0
63,0.0,0.0,-0.858378450107,0.513016994252,0.0,0.0,-0.0305432619099,0.0,0.0,0.0
64,0.0,0.0,-0.85860221428,0.512642407174,0.0,0.0,-0.023387411976700002,0.0,0.0,0.0
65,0.0,0.0,-0.8585574745219999,0.5127173324000001,0.0,0.0,-0.00820304748437,0.0,0.0,0.0
66,0.0,0.0,-0.85860221428,0.512642407174,0.0,0.0,-0.008028514559169999,0.0,0.0,0.0
67,0.0,0.0,-0.858736394323,0.512417608074,0.0,0.0,-0.00628318530718,0.0,0.0,0.0
68,0.0,0.0,-0.8588258149879999,0.512267722496,0.0,0.0,-0.0321140582367,0.0,0.0,0.0
69,0.0,0.0,-0.8590045778290001,0.511967904529,0.0,0.0,0.00680678408278,0.0,0.0,0.0
70,0.0,0.0,-0.8590045778290001,0.511967904529,0.0,0.0,-0.009250245035569999,0.0,0.0,0.0
71,0.0,0.0,-0.859183236004,0.511668024181,0.0,0.0,-0.0171042266695,0.0,0.0,0.0
72,0.0,0.0,-0.859272525835,0.511518060625,0.0,0.0,0.0,0.0,0.0,0.0
73,0.0,0.0,-0.85936178949,0.5113680814880001,0.0,0.0,-0.0230383461263,0.0,0.0,0.0
74,0.0,0.0,-0.859406411501,0.511293086077,0.0,0.0,0.00488692190558,0.0,0.0,0.0
75,0.0,0.0,-0.8595848340960001,0.5109930655039999,0.0,0.0,-0.0176278254451,0.0,0.0,0.0
76,0.0,0.0,-0.859718582308,0.510768009211,0.0,0.0,-0.0144862327916,0.0,0.0,0.0
77,0.0,0.0,-0.859941365049,0.510392837604,0.0,0.0,-0.00733038285838,0.0,0.0,0.0
78,0.0,0.0,-0.8600749561100001,0.510167687993,0.0,0.0,-0.0144862327916,0.0,0.0,0.0
79,0.0,0.0,-0.860119473365,0.5100926303509999,0.0,0.0,-0.004014257279590001,0.0,0.0,0.0
80,0.0,0.0,-0.860208488223,0.509942503415,0.0,0.0,-0.006632251157579999,0.0,0.0,0.0
81,0.0,0.0,-0.8603419613779999,0.509717283887,0.0,0.0,-0.0134390352404,0.0,0.0,0.0
82,0.0,0.0,-0.8603864393260001,0.509642202947,0.0,0.0,0.0010471975512,0.0,0.0,0.0
83,0.0,0.0,-0.8606087307770001,0.509266740039,0.0,0.0,-0.007679448708779999,0.0,0.0,0.0
84,0.0,0.0,-0.860653169407,0.5091916358199999,0.0,0.0,-0.0050614548307799994,0.0,0.0,0.0
85,0.0,0.0,-0.8607420270039999,0.5090414157500001,0.0,0.0,0.00855211333477,0.0,0.0,0.0
86,0.0,0.0,-0.8606976014830001,0.509116527724,0.0,0.0,0.00733038285838,0.0,0.0,0.0
87,0.0,0.0,-0.8609640562790001,0.508665797746,0.0,0.0,-0.0183259571459,0.0,0.0,0.0
88,0.0,0.0,-0.861008442465,0.5085906625209999,0.0,0.0,-0.0102974425868,0.0,0.0,0.0
89,0.0,0.0,-0.861141561681,0.5083652336119999,0.0,0.0,0.0019198621771900001,0.0,0.0,0.0
90,0.0,0.0,-0.861097195167,0.508440380454,0.0,0.0,0.00837758040957,0.0,0.0,0.0
91,0.0,0.0,-0.861185921638,0.508290082898,0.0,0.0,-0.00715584993318,0.0,0.0,0.0
92,0.0,0.0,-0.861230275036,0.508214928314,0.0,0.0,-0.0101229096616,0.0,0.0,0.0
93,0.0,0.0,-0.861451943641,0.507839097349,0.0,0.0,-0.00174532925199,0.0,0.0,0.0
94,0.0,0.0,-0.861451943641,0.507839097349,0.0,0.0,0.0013962634016,0.0,0.0,0.0
95,0.0,0.0,-0.8614076230399998,0.507914271279,0.0,0.0,-0.00593411945678,0.0,0.0,0.0
96,0.0,0.0,-0.861629160442,0.507538362961,0.0,0.0,-0.00820304748437,0.0,0.0,0.0
97,0.0,0.0,-0.861629160442,0.507538362961,0.0,0.0,-0.0005235987755980001,0.0,0.0,0.0
98,0.0,0.0,-0.8617177294730001,0.507387972573,0.0,0.0,-0.00523598775598,0.0,0.0,0.0
99,0.0,0.0,-0.861850533801,0.507162358014,0.0,0.0,0.0116937059884,0.0,0.0,0.0
100,0.0,0.0,-0.8617177294730001,0.507387972573,0.0,0.0,0.00855211333477,0.0,0.0,0.0
101,0.0,0.0,-0.861894788785,0.507087145436,0.0,0.0,-0.010471975512,0.0,0.0,0.0
102,0.0,0.0,-0.862115965238,0.50671102463,0.0,0.0,-0.00366519142919,0.0,0.0,0.0
103,0.0,0.0,-0.862115965238,0.50671102463,0.0,0.0,-0.00994837673637,0.0,0.0,0.0
104,0.0,0.0,-0.862248592329,0.506485305836,0.0,0.0,-0.00593411945678,0.0,0.0,0.0
105,0.0,0.0,-0.8623369775570001,0.506334807353,0.0,0.0,-0.008028514559169999,0.0,0.0,0.0
106,0.0,0.0,-0.862469506147,0.506109030711,0.0,0.0,-0.00523598775598,0.0,0.0,0.0
107,0.0,0.0,-0.8625578257,0.5059584936779999,0.0,0.0,0.00733038285838,0.0,0.0,0.0
108,0.0,0.0,-0.8625578257,0.5059584936779999,0.0,0.0,-0.0033161255787899995,0.0,0.0,0.0
109,0.0,0.0,-0.862690255763,0.505732659231,0.0,0.0,-0.00715584993318,0.0,0.0,0.0
110,0.0,0.0,-0.862866737202,0.5054314927179999,0.0,0.0,-0.0226892802759,0.0,0.0,0.0
111,0.0,0.0,-0.862954938496,0.505280886365,0.0,0.0,-0.0109955742876,0.0,0.0,0.0
112,0.0,0.0,-0.862910841134,0.505356191466,0.0,0.0,-0.005410520681180001,0.0,0.0,0.0
113,0.0,0.0,-0.8632634359970001,0.504753642949,0.0,0.0,-0.010471975512,0.0,0.0,0.0
114,0.0,0.0,-0.863307480775,0.504678307081,0.0,0.0,-0.012217304764,0.0,0.0,0.0
115,0.0,0.0,-0.8631753267200001,0.5049043031530001,0.0,0.0,-0.00593411945678,0.0,0.0,0.0
116,0.0,0.0,-0.8632193846449999,0.5048289749729999,0.0,0.0,-0.00174532925199,0.0,0.0,0.0
117,0.0,0.0,-0.863307480775,0.504678307081,0.0,0.0,-0.010646508437200001,0.0,0.0,0.0
118,0.0,0.0,-0.863351518978,0.504602967369,0.0,0.0,-0.014835298642,0.0,0.0,0.0
119,0.0,0.0,-0.86352760604,0.504301570101,0.0,0.0,-0.004363323129989999,0.0,0.0,0.0
120,0.0,0.0,-0.863483594138,0.50437692518,0.0,0.0,0.0102974425868,0.0,0.0,0.0
121,0.0,0.0,-0.863659602288,0.504075481823,0.0,0.0,-0.0162315620435,0.0,0.0,0.0
122,0.0,0.0,-0.863791539342,0.503849358996,0.0,0.0,-0.00261799387799,0.0,0.0,0.0
123,0.0,0.0,-0.863835505204,0.503773977046,0.0,0.0,-0.014835298642,0.0,0.0,0.0
124,0.0,0.0,-0.864099162217,0.5033216047969999,0.0,0.0,-0.00628318530718,0.0,0.0,0.0
125,0.0,0.0,-0.8640552358310001,0.503397009758,0.0,0.0,0.012217304764,0.0,0.0,0.0
126,0.0,0.0,-0.8640552358310001,0.503397009758,0.0,0.0,-0.00645771823238,0.0,0.0,0.0
127,0.0,0.0,-0.864274801954,0.50301994663,0.0,0.0,-0.0230383461263,0.0,0.0,0.0
128,0.0,0.0,-0.864450336381,0.502718227172,0.0,0.0,-0.0183259571459,0.0,0.0,0.0
129,0.0,0.0,-0.864581918079,0.502491897378,0.0,0.0,-0.0274016692563,0.0,0.0,0.0
130,0.0,0.0,-0.86471344052,0.502265533143,0.0,0.0,-0.0134390352404,0.0,0.0,0.0
131,0.0,0.0,-0.8648449036939999,0.502039134484,0.0,0.0,-0.005759586531579999,0.0,0.0,0.0
132,0.0,0.0,-0.8649763075929999,0.501812701416,0.0,0.0,0.00733038285838,0.0,0.0,0.0
133,0.0,0.0,-0.8651514205700002,0.501510737159,0.0,0.0,0.000174532925199,0.0,0.0,0.0
134,0.0,0.0,-0.8652389375280001,0.501359732114,0.0,0.0,-0.00837758040957,0.0,0.0,0.0
135,0.0,0.0,-0.865282686124,0.501284223863,0.0,0.0,-0.00174532925199,0.0,0.0,0.0
136,0.0,0.0,-0.8653701635459999,0.501133195911,0.0,0.0,-0.00733038285838,0.0,0.0,0.0
137,0.0,0.0,-0.865545039307,0.5008310942140001,0.0,0.0,0.010646508437200001,0.0,0.0,0.0
138,0.0,0.0,-0.8655013302529999,0.500906625361,0.0,0.0,0.0013962634016,0.0,0.0,0.0
139,0.0,0.0,-0.8656761269169999,0.500604477892,0.0,0.0,-0.0298451302091,0.0,0.0,0.0
140,0.0,0.0,-0.865894474414,0.500226707783,0.0,0.0,0.010646508437200001,0.0,0.0,0.0
141,0.0,0.0,-0.8658071551950001,0.500377827259,0.0,0.0,0.00733038285838,0.0,0.0,0.0
142,0.0,0.0,-0.8658508181010001,0.500302269426,0.0,0.0,0.0013962634016,0.0,0.0,0.0
143,0.0,0.0,-0.8658508181010001,0.500302269426,0.0,0.0,-0.0010471975512,0.0,0.0,0.0
144,0.0,0.0,-0.8661126570559999,0.499848842438,0.0,0.0,-0.0019198621771900001,0.0,0.0,0.0
145,0.0,0.0,-0.866025403784,0.5,0.0,0.0,0.00488692190558,0.0,0.0,0.0
146,0.0,0.0,-0.8661126570559999,0.499848842438,0.0,0.0,-0.0151843644924,0.0,0.0,0.0
147,0.0,0.0,-0.866287084447,0.49954648164099996,0.0,0.0,-0.021118483949099997,0.0,0.0,0.0
148,0.0,0.0,-0.866330674803,0.499470881929,0.0,0.0,-0.00628318530718,0.0,0.0,0.0
149,0.0,0.0,-0.866417835722,0.499319671096,0.0,0.0,0.012217304764,0.0,0.0,0.0
150,0.0,0.0,-0.866504970248,0.499168445052,0.0,0.0,-0.010471975512,0.0,0.0,0.0
151,0.0,0.0,-0.866635622545,0.498941577478,0.0,0.0,-0.0109955742876,0.0,0.0,0.0
152,0.0,0.0,-0.866766215444,0.49871467570600003,0.0,0.0,-0.00453785605519,0.0,0.0,0.0
153,0.0,0.0,-0.8668532443729999,0.498563388868,0.0,0.0,-0.013089969390000001,0.0,0.0,0.0
154,0.0,0.0,-0.866896748936,0.498487739754,0.0,0.0,-0.00628318530718,0.0,0.0,0.0
155,0.0,0.0,-0.867027223011,0.498260769635,0.0,0.0,-0.014660765716799999,0.0,0.0,0.0
156,0.0,0.0,-0.867157637662,0.498033765367,0.0,0.0,-0.0157079632679,0.0,0.0,0.0
157,0.0,0.0,-0.867331431408,0.497731039913,0.0,0.0,-0.013089969390000001,0.0,0.0,0.0
158,0.0,0.0,-0.867374863332,0.497655349072,0.0,0.0,0.00261799387799,0.0,0.0,0.0
159,0.0,0.0,-0.867374863332,0.497655349072,0.0,0.0,0.0160570291183,0.0,0.0,0.0
160,0.0,0.0,-0.867505119472,0.497428253812,0.0,0.0,0.000174532925199,0.0,0.0,0.0
161,0.0,0.0,-0.867591923867,0.49727683803000006,0.0,0.0,-0.0186750229963,0.0,0.0,0.0
162,0.0,0.0,-0.8677654533689999,0.49697396102799996,0.0,0.0,-0.0127409035396,0.0,0.0,0.0
163,0.0,0.0,-0.867852178471,0.496822499816,0.0,0.0,-0.014660765716799999,0.0,0.0,0.0
164,0.0,0.0,-0.867852178471,0.496822499816,0.0,0.0,-0.00314159265359,0.0,0.0,0.0
165,0.0,0.0,-0.867852178471,0.496822499816,0.0,0.0,-0.012042771838799999,0.0,0.0,0.0
166,0.0,0.0,-0.868068875561,0.496443780586,0.0,0.0,-0.00418879020479,0.0,0.0,0.0
167,0.0,0.0,-0.868068875561,0.496443780586,0.0,0.0,0.000174532925199,0.0,0.0,0.0
168,0.0,0.0,-0.867982216555,0.49659527962399996,0.0,0.0,0.004014257279590001,0.0,0.0,0.0
169,0.0,0.0,-0.868155508124,0.49629226642499996,0.0,0.0,-0.00226892802759,0.0,0.0,0.0
170,0.0,0.0,-0.868155508124,0.49629226642499996,0.0,0.0,0.0,0.0,0.0,0.0
171,0.0,0.0,-0.868198814489,0.496216503675,0.0,0.0,0.010471975512,0.0,0.0,0.0
172,0.0,0.0,-0.868198814489,0.496216503675,0.0,0.0,-0.00733038285838,0.0,0.0,0.0
173,0.0,0.0,-0.8685017738959999,0.495686058649,0.0,0.0,-0.0178023583703,0.0,0.0,0.0
174,0.0,0.0,-0.868588274205,0.49553446894500003,0.0,0.0,-0.00680678408278,0.0,0.0,0.0
175,0.0,0.0,-0.868588274205,0.49553446894500003,0.0,0.0,-0.00314159265359,0.0,0.0,0.0
176,0.0,0.0,-0.868588274205,0.49553446894500003,0.0,0.0,-0.00261799387799,0.0,0.0,0.0
177,0.0,0.0,-0.868804409216,0.495155428655,0.0,0.0,-0.009075712110370001,0.0,0.0,0.0
178,0.0,0.0,-0.868804409216,0.495155428655,0.0,0.0,0.00296705972839,0.0,0.0,0.0
179,0.0,0.0,-0.868717975058,0.495307056088,0.0,0.0,-0.00593411945678,0.0,0.0,0.0
180,0.0,0.0,-0.868890816908,0.495003786139,0.0,0.0,-0.00226892802759,0.0,0.0,0.0
181,0.0,0.0,-0.869020378819,0.494776294095,0.0,0.0,-0.00994837673637,0.0,0.0,0.0
182,0.0,0.0,-0.869020378819,0.494776294095,0.0,0.0,-0.000349065850399,0.0,0.0,0.0
183,0.0,0.0,-0.869106720336,0.494624613891,0.0,0.0,-0.013089969390000001,0.0,0.0,0.0
184,0.0,0.0,-0.8691930353790001,0.49447291862,0.0,0.0,-0.004363323129989999,0.0,0.0,0.0
185,0.0,0.0,-0.869408707144,0.49409361455399997,0.0,0.0,-0.012391837689200002,0.0,0.0,0.0
186,0.0,0.0,-0.869451821635,0.49401774244999996,0.0,0.0,-0.005759586531579999,0.0,0.0,0.0
187,0.0,0.0,-0.869451821635,0.49401774244999996,0.0,0.0,-0.0005235987755980001,0.0,0.0,0.0
188,0.0,0.0,-0.869451821635,0.49401774244999996,0.0,0.0,-0.00453785605519,0.0,0.0,0.0
189,0.0,0.0,-0.8695380307539999,0.49386598695699996,0.0,0.0,-0.006981317007979999,0.0,0.0,0.0
190,0.0,0.0,-0.869624213385,0.49371421641900004,0.0,0.0,-0.0256563400043,0.0,0.0,0.0
191,0.0,0.0,-0.869624213385,0.49371421641900004,0.0,0.0,0.00244346095279,0.0,0.0,0.0
192,0.0,0.0,-0.8696672947669999,0.493638325511,0.0,0.0,-0.0038397243543899996,0.0,0.0,0.0
193,0.0,0.0,-0.869710369526,0.49356243084299994,0.0,0.0,-0.0136135681656,0.0,0.0,0.0
194,0.0,0.0,-0.869882602326,0.49325881459,0.0,0.0,-0.00820304748437,0.0,0.0,0.0
195,0.0,0.0,-0.869882602326,0.49325881459,0.0,0.0,-0.0101229096616,0.0,0.0,0.0
196,0.0,0.0,-0.8699256439659999,0.493182901134,0.0,0.0,-0.00226892802759,0.0,0.0,0.0
197,0.0,0.0,-0.8699686789799999,0.49310698392200003,0.0,0.0,-0.00593411945678,0.0,0.0,0.0
198,0.0,0.0,-0.870054729134,0.492955138234,0.0,0.0,-0.005759586531579999,0.0,0.0,0.0
199,0.0,0.0,-0.870226749928,0.492651401814,0.0,0.0,-0.0115191730632,0.0,0.0,0.0
200,0.0,0.0,-0.870226749928,0.492651401814,0.0,0.0,0.00244346095279,0.0,0.0,0.0
201,0.0,0.0,-0.870140752784,0.49280327753,0.0,0.0,0.00733038285838,0.0,0.0,0.0
202,0.0,0.0,-0.870054729134,0.492955138234,0.0,0.0,-0.013962634016,0.0,0.0,0.0
203,0.0,0.0,-0.870398664688,0.49234760536600003,0.0,0.0,-0.00366519142919,0.0,0.0,0.0
204,0.0,0.0,-0.870484582298,0.492195684643,0.0,0.0,0.0038397243543899996,0.0,0.0,0.0
205,0.0,0.0,-0.8704416268080001,0.492271646879,0.0,0.0,-0.0204203522483,0.0,0.0,0.0
206,0.0,0.0,-0.8708279875489999,0.491587851865,0.0,0.0,-0.0134390352404,0.0,0.0,0.0
207,0.0,0.0,-0.8708279875489999,0.491587851865,0.0,0.0,0.015533430342700001,0.0,0.0,0.0
208,0.0,0.0,-0.870699260309,0.49181581725,0.0,0.0,-0.0116937059884,0.0,0.0,0.0
209,0.0,0.0,-0.870870883366,0.491511855915,0.0,0.0,-0.014311699866400001,0.0,0.0,0.0
210,0.0,0.0,-0.870956655104,0.491359852787,0.0,0.0,0.0115191730632,0.0,0.0,0.0
211,0.0,0.0,-0.870913772551,0.491435856222,0.0,0.0,0.0157079632679,0.0,0.0,0.0
212,0.0,0.0,-0.8708279875489999,0.491587851865,0.0,0.0,-0.0178023583703,0.0,0.0,0.0
213,0.0,0.0,-0.870956655104,0.491359852787,0.0,0.0,-0.0195476876223,0.0,0.0,0.0
214,0.0,0.0,-0.870999531023,0.49128384561000005,0.0,0.0,0.010821041362399999,0.0,0.0,0.0
215,0.0,0.0,-0.870956655104,0.491359852787,0.0,0.0,0.006632251157579999,0.0,0.0,0.0
216,0.0,0.0,-0.8710852629629999,0.491131820032,0.0,0.0,-0.00645771823238,0.0,0.0,0.0
217,0.0,0.0,-0.871256647237,0.490827723999,0.0,0.0,-0.0134390352404,0.0,0.0,0.0
218,0.0,0.0,-0.871299476719,0.49075169064400004,0.0,0.0,-0.000872664625997,0.0,0.0,0.0
219,0.0,0.0,-0.871256647237,0.490827723999,0.0,0.0,-0.00733038285838,0.0,0.0,0.0
220,0.0,0.0,-0.871342299565,0.490675653552,0.0,0.0,-0.014137166941200001,0.0,0.0,0.0
221,0.0,0.0,-0.871385115776,0.490599612724,0.0,0.0,-0.0109955742876,0.0,0.0,0.0
222,0.0,0.0,-0.8714279253499999,0.490523568159,0.0,0.0,-0.00418879020479,0.0,0.0,0.0
223,0.0,0.0,-0.871470728289,0.490447519859,0.0,0.0,0.00680678408278,0.0,0.0,0.0
224,0.0,0.0,-0.871556314255,0.490295412055,0.0,0.0,-0.009075712110370001,0.0,0.0,0.0
225,0.0,0.0,-0.8714279253499999,0.490523568159,0.0,0.0,0.00558505360638,0.0,0.0,0.0
226,0.0,0.0,-0.871599097283,0.49021935255099996,0.0,0.0,-0.008901179185170001,0.0,0.0,0.0
227,0.0,0.0,-0.871684643425,0.490067222346,0.0,0.0,-0.022340214425499997,0.0,0.0,0.0
228,0.0,0.0,-0.871684643425,0.490067222346,0.0,0.0,0.012042771838799999,0.0,0.0,0.0
229,0.0,0.0,-0.87181291285,0.489838999048,0.0,0.0,-0.017453292519900004,0.0,0.0,0.0
230,0.0,0.0,-0.872026562436,0.48945855228600005,0.0,0.0,-0.0195476876223,0.0,0.0,0.0
231,0.0,0.0,-0.872069272432,0.489382451749,0.0,0.0,-0.000174532925199,0.0,0.0,0.0
232,0.0,0.0,-0.8721546725,0.489230239495,0.0,0.0,-0.007679448708779999,0.0,0.0,0.0
233,0.0,0.0,-0.872282722788,0.489001893172,0.0,0.0,-0.0038397243543899996,0.0,0.0,0.0
234,0.0,0.0,-0.8723253929320001,0.48892577028300005,0.0,0.0,0.00157079632679,0.0,0.0,0.0
235,0.0,0.0,-0.872282722788,0.489001893172,0.0,0.0,-0.000349065850399,0.0,0.0,0.0
236,0.0,0.0,-0.8721546725,0.489230239495,0.0,0.0,0.014835298642,0.0,0.0,0.0
237,0.0,0.0,-0.8721546725,0.489230239495,0.0,0.0,0.00261799387799,0.0,0.0,0.0
238,0.0,0.0,-0.87241071329,0.48877351333400004,0.0,0.0,-0.0164060949687,0.0,0.0,0.0
239,0.0,0.0,-0.872453363503,0.488697379276,0.0,0.0,0.0,0.0,0.0,0.0
240,0.0,0.0,-0.8724960070730001,0.48862124149700004,0.0,0.0,0.0020943951023900003,0.0,0.0,0.0
241,0.0,0.0,-0.8724960070730001,0.48862124149700004,0.0,0.0,0.00453785605519,0.0,0.0,0.0
242,0.0,0.0,-0.872581274278,0.48846895477499996,0.0,0.0,-0.0151843644924,0.0,0.0,0.0
243,0.0,0.0,-0.8727091252470001,0.488240496795,0.0,0.0,-0.00314159265359,0.0,0.0,0.0
244,0.0,0.0,-0.872751728945,0.48816433669799997,0.0,0.0,-0.00715584993318,0.0,0.0,0.0
245,0.0,0.0,-0.872794325997,0.488088172883,0.0,0.0,-0.00715584993318,0.0,0.0,0.0
246,0.0,0.0,-0.872794325997,0.488088172883,0.0,0.0,0.008028514559169999,0.0,0.0,0.0
247,0.0,0.0,-0.872623897913,0.488392805834,0.0,0.0,-0.014137166941200001,0.0,0.0,0.0
248,0.0,0.0,-0.872879500159,0.487935834103,0.0,0.0,-0.00942477796077,0.0,0.0,0.0
249,0.0,0.0,-0.873007211547,0.487707298065,0.0,0.0,-0.013962634016,0.0,0.0,0.0
250,0.0,0.0,-0.87321993089,0.487326330395,0.0,0.0,-0.0019198621771900001,0.0,0.0,0.0
251,0.0,0.0,-0.874153920417,0.48564897139700003,0.0,0.0,-0.20176006153099998,0.0,0.0,0.0
252,0.0,0.0,-0.8778576241060001,0.47892169693899994,0.0,0.0,-0.207170582212,0.0,0.0,0.0
253,0.0,0.0,-0.881055904267,0.47301214948,0.0,0.0,-0.230034395413,0.0,0.0,0.0
254,0.0,0.0,-0.8839289145620001,0.467621293358,0.0,0.0,-0.238062909972,0.0,0.0,0.0
255,0.0,0.0,-0.887010833178,0.461748613235,0.0,0.0,-0.16964600329399998,0.0,0.0,0.0
256,0.0,0.0,-0.8909272743279999,0.45414600279899997,0.0,0.0,-0.47542768824299997,0.0,0.0,0.0
257,0.0,0.0,-0.899214438222,0.437508164602,0.0,0.0,-0.517490123216,0.0,0.0,0.0
258,0.0,0.0,-0.9053095013860001,0.42475252406499997,0.0,0.0,-0.509810674508,0.0,0.0,0.0
259,0.0,0.0,-0.916083009922,0.400988676813,0.0,0.0,-0.48764499300700004,0.0,0.0,0.0
260,0.0,0.0,-0.921626259803,0.38807864826899996,0.0,0.0,-0.50789081233,0.0,0.0,0.0
261,0.0,0.0,-0.924379672289,0.381473749372,0.0,0.0,-0.526042236551,0.0,0.0,0.0
262,0.0,0.0,-0.92990492895,0.367799977044,0.0,0.0,-0.515221195189,0.0,0.0,0.0
263,0.0,0.0,-0.935782911279,0.35257671925300005,0.0,0.0,-0.49846603437,0.0,0.0,0.0
264,0.0,0.0,-0.937373213319,0.348326655528,0.0,0.0,-0.504574686752,0.0,0.0,0.0
265,0.0,0.0,-0.942174490079,0.335122709234,0.0,0.0,-0.500036830696,0.0,0.0,0.0
266,0.0,0.0,-0.9476570144679999,0.319290123445,0.0,0.0,-0.518013721992,0.0,0.0,0.0
267,0.0,0.0,-0.9491511060529999,0.314820866332,0.0,0.0,-0.513999464712,0.0,0.0,0.0
268,0.0,0.0,-0.9537694192849999,0.300539339916,0.0,0.0,-0.527089434102,0.0,0.0,0.0
269,0.0,0.0,-0.955895596002,0.293706672624,0.0,0.0,-0.513824931787,0.0,0.0,0.0
270,0.0,0.0,-0.9600254310420001,0.27991279312,0.0,0.0,-0.506843614779,0.0,0.0,0.0
271,0.0,0.0,-0.9613578529610001,0.2753017954,0.0,0.0,-0.525693170701,0.0,0.0,0.0
272,0.0,0.0,-0.9659484088339999,0.258734751187,0.0,0.0,-0.511381470834,0.0,0.0,0.0
273,0.0,0.0,-0.967156937911,0.254179970591,0.0,0.0,-0.50789081233,0.0,0.0,0.0
274,0.0,0.0,-0.971217484627,0.23819445324000002,0.0,0.0,-0.513475865937,0.0,0.0,0.0
275,0.0,0.0,-0.9744877153120001,0.224440844558,0.0,0.0,-0.500734962397,0.0,0.0,0.0
276,0.0,0.0,-0.978183873271,0.20774096869000003,0.0,0.0,-0.51155600376,0.0,0.0,0.0
277,0.0,0.0,-0.9810905174429999,0.193549468051,0.0,0.0,-0.540179403492,0.0,0.0,0.0
278,0.0,0.0,-0.984533772247,0.175194895202,0.0,0.0,-0.610516172348,0.0,0.0,0.0
279,0.0,0.0,-0.987178088041,0.159622750546,0.0,0.0,-0.5471607205,0.0,0.0,0.0
280,0.0,0.0,-0.989863173289,0.14202428723899999,0.0,0.0,-0.492182849062,0.0,0.0,0.0
281,0.0,0.0,-0.991850028246,0.12741083733,0.0,0.0,-0.565312144721,0.0,0.0,0.0
282,0.0,0.0,-0.9939705277959999,0.109647571217,0.0,0.0,-0.562170552067,0.0,0.0,0.0
283,0.0,0.0,-0.995537292987,0.09436894760330002,0.0,0.0,-0.551698576555,0.0,0.0,0.0
284,0.0,0.0,-0.9970393470450001,0.0768930454909,0.0,0.0,-0.53372168526,0.0,0.0,0.0
285,0.0,0.0,-0.9980267284280001,0.06279051952930001,0.0,0.0,-0.5176646561420001,0.0,0.0,0.0
286,0.0,0.0,-0.9990933518999999,0.042573162788399996,0.0,0.0,-0.648913415891,0.0,0.0,0.0
287,0.0,0.0,-0.999648126594,0.0265258929402,0.0,0.0,-0.545938990024,0.0,0.0,0.0
288,0.0,0.0,-0.999948763788,0.010122736774499999,0.0,0.0,-0.495498974641,0.0,0.0,0.0
289,0.0,0.0,-0.9999858315160001,0.00532322907774,0.0,0.0,-0.517315590291,0.0,0.0,0.0
290,0.0,0.0,0.999965635544,0.00829021898271,0.0,0.0,-0.461988653003,0.0,0.0,0.0
291,0.0,0.0,0.9997036180840001,0.0243449376471,0.0,0.0,-0.553094839957,0.0,0.0,0.0
292,0.0,0.0,0.9995598601189999,0.0296662440851,0.0,0.0,-0.575958653158,0.0,0.0,0.0
293,0.0,0.0,0.998865073158,0.047629461744,0.0,0.0,-0.539655804717,0.0,0.0,0.0
294,0.0,0.0,0.998620385197,0.052510249178800004,0.0,0.0,-0.5244714402239999,0.0,0.0,0.0
295,0.0,0.0,0.9977315193330001,0.0673187591245,0.0,0.0,-0.553269372882,0.0,0.0,0.0
296,0.0,0.0,0.997378009851,0.07236784828580001,0.0,0.0,-0.5424483315199999,0.0,0.0,0.0
297,0.0,0.0,0.9959787627600001,0.08958964299000001,0.0,0.0,-0.5370378108389999,0.0,0.0,0.0
298,0.0,0.0,0.995537292987,0.09436894760330002,0.0,0.0,-0.516966524441,0.0,0.0,0.0
299,0.0,0.0,0.993660458821,0.112422829423,0.0,0.0,-0.57334065928,0.0,0.0,0.0
300,0.0,0.0,0.9917608370000001,0.128103248172,0.0,0.0,-0.5640904142450001,0.0,0.0,0.0
301,0.0,0.0,0.9910997473659999,0.133121338527,0.0,0.0,-0.541575666894,0.0,0.0,0.0
302,0.0,0.0,0.989221280098,0.146428340844,0.0,0.0,-0.246091424531,0.0,0.0,0.0
303,0.0,0.0,0.9889512751940001,0.14824093662499999,0.0,0.0,-0.190415421393,0.0,0.0,0.0
304,0.0,0.0,0.9880272768610001,0.154279292772,0.0,0.0,-0.19826940302700002,0.0,0.0,0.0
305,0.0,0.0,0.98679924591,0.161948288881,0.0,0.0,-0.303338223997,0.0,0.0,0.0
306,0.0,0.0,0.9854375906370001,0.170037510451,0.0,0.0,-0.293738913111,0.0,0.0,0.0
307,0.0,0.0,0.984149213565,0.177342396056,0.0,0.0,-0.0609119908946,0.0,0.0,0.0
308,0.0,0.0,0.9843497687839999,0.176225800308,0.0,0.0,-0.0164060949687,0.0,0.0,0.0
309,0.0,0.0,0.9842727820730001,0.17665528713,0.0,0.0,-0.024609142453099996,0.0,0.0,0.0
310,0.0,0.0,0.984009625651,0.178115290264,0.0,0.0,-0.03525565089030001,0.0,0.0,0.0
311,0.0,0.0,0.983931814526,0.178544628491,0.0,0.0,-0.0167551608191,0.0,0.0,0.0
312,0.0,0.0,0.983791282448,0.179317351584,0.0,0.0,-0.0185004900711,0.0,0.0,0.0
313,0.0,0.0,0.9837443035619999,0.17957490139199997,0.0,0.0,-0.024783675378299997,0.0,0.0,0.0
314,0.0,0.0,0.9836344239579999,0.180175803048,0.0,0.0,-0.012217304764,0.0,0.0,0.0
315,0.0,0.0,0.9835083978229999,0.180862465458,0.0,0.0,-0.0219911485751,0.0,0.0,0.0
316,0.0,0.0,0.983476816388,0.1810341173,0.0,0.0,-0.0179768912955,0.0,0.0,0.0
317,0.0,0.0,0.983366045451,0.18163485528499998,0.0,0.0,-0.0364773813667,0.0,0.0,0.0
318,0.0,0.0,0.98323900077,0.182321329976,0.0,0.0,-0.00471238898038,0.0,0.0,0.0
319,0.0,0.0,0.98320716472,0.182492934777,0.0,0.0,-0.0242600766027,0.0,0.0,0.0
320,0.0,0.0,0.983015519497,0.18352244666099998,0.0,0.0,-0.014137166941200001,0.0,0.0,0.0
321,0.0,0.0,0.9828710781319999,0.18429444856199997,0.0,0.0,-0.034906585039900004,0.0,0.0,0.0
322,0.0,0.0,0.982822796277,0.18455175729000003,0.0,0.0,-0.0237364778271,0.0,0.0,0.0
323,0.0,0.0,0.9827421768260001,0.184980577053,0.0,0.0,-0.0404916386463,0.0,0.0,0.0
324,0.0,0.0,0.9826775465530001,0.18532360751,0.0,0.0,-0.0338593874887,0.0,0.0,0.0
325,0.0,0.0,0.9825803766399999,0.185838110843,0.0,0.0,-0.024783675378299997,0.0,0.0,0.0
326,0.0,0.0,0.982466671277,0.186438300328,0.0,0.0,-0.021816615649900003,0.0,0.0,0.0
327,0.0,0.0,0.982417828176,0.186695503109,0.0,0.0,-0.0249582083035,0.0,0.0,0.0
328,0.0,0.0,0.982270894884,0.187467034606,0.0,0.0,-0.017453292519900004,0.0,0.0,0.0
329,0.0,0.0,0.982156194526,0.18806703473499997,0.0,0.0,-0.029496064358700003,0.0,0.0,0.0
330,0.0,0.0,0.982024659632,0.188752663223,0.0,0.0,-0.013788101090799998,0.0,0.0,0.0
331,0.0,0.0,0.981892646112,0.189438199716,0.0,0.0,-0.0144862327916,0.0,0.0,0.0
332,0.0,0.0,0.981793321911,0.189952291512,0.0,0.0,-0.0274016692563,0.0,0.0,0.0
333,0.0,0.0,0.981660470949,0.190637666207,0.0,0.0,-0.0214675497995,0.0,0.0,0.0
334,0.0,0.0,0.9814770196700001,0.191579904634,0.0,0.0,-0.0256563400043,0.0,0.0,0.0
335,0.0,0.0,0.9814268305339999,0.19183684814899998,0.0,0.0,-0.010471975512,0.0,0.0,0.0
336,0.0,0.0,0.9812758595450001,0.192607599732,0.0,0.0,-0.0310668606855,0.0,0.0,0.0
337,0.0,0.0,0.981124283255,0.193378232506,0.0,0.0,-0.0317649923863,0.0,0.0,0.0
338,0.0,0.0,0.980972101759,0.19414874599399998,0.0,0.0,-0.030892327760299997,0.0,0.0,0.0
339,0.0,0.0,0.980819315149,0.19491913972199998,0.0,0.0,-0.0226892802759,0.0,0.0,0.0
340,0.0,0.0,0.980700062831,0.19551825174100002,0.0,0.0,-0.00680678408278,0.0,0.0,0.0
341,0.0,0.0,0.980477623373,0.196630694615,0.0,0.0,-0.051661745859000005,0.0,0.0,0.0
342,0.0,0.0,0.980340110326,0.197315149153,0.0,0.0,-0.0179768912955,0.0,0.0,0.0
343,0.0,0.0,0.980184837025,0.198085045539,0.0,0.0,-0.0268780704807,0.0,0.0,0.0
344,0.0,0.0,0.980132944892,0.19834165053800001,0.0,0.0,-0.0226892802759,0.0,0.0,0.0
345,0.0,0.0,0.9800289590960001,0.198854819736,0.0,0.0,-0.0354301838155,0.0,0.0,0.0
346,0.0,0.0,0.979959485964,0.199196902256,0.0,0.0,-0.0359537825911,0.0,0.0,0.0
347,0.0,0.0,0.979767819194,0.200137503911,0.0,0.0,-0.0190240888467,0.0,0.0,0.0
348,0.0,0.0,0.9797503501710001,0.20022300402100002,0.0,0.0,-0.0109955742876,0.0,0.0,0.0
349,0.0,0.0,0.979627858106,0.200821462057,0.0,0.0,-0.0333357887131,0.0,0.0,0.0
350,0.0,0.0,0.979311200053,0.202360009512,0.0,0.0,-0.0504400153826,0.0,0.0,0.0
351,0.0,0.0,0.9792228106219999,0.20278729535700002,0.0,0.0,-0.0478220215046,0.0,0.0,0.0
352,0.0,0.0,0.97913423476,0.203214542593,0.0,0.0,0.0013962634016,0.0,0.0,0.0
353,0.0,0.0,0.979116497217,0.2032999874,0.0,0.0,-0.0125663706144,0.0,0.0,0.0
354,0.0,0.0,0.979009915383,0.203812623708,0.0,0.0,-0.0277507351067,0.0,0.0,0.0
355,0.0,0.0,0.978562935698,0.20594800528,0.0,0.0,-0.0563741348394,0.0,0.0,0.0
356,0.0,0.0,0.978382839572,0.206801884011,0.0,0.0,0.00418879020479,0.0,0.0,0.0
357,0.0,0.0,0.978490986666,0.206289575629,0.0,0.0,-0.0190240888467,0.0,0.0,0.0
358,0.0,0.0,0.9783647889779999,0.206887263232,0.0,0.0,-0.014311699866400001,0.0,0.0,0.0
359,0.0,0.0,0.978292512096,0.207228764358,0.0,0.0,-0.03525565089030001,0.0,0.0,0.0
360,0.0,0.0,0.9781476007340001,0.20791169081799998,0.0,0.0,-0.0366519142919,0.0,0.0,0.0
361,0.0,0.0,0.977965791128,0.208765206353,0.0,0.0,-0.020943951023900002,0.0,0.0,0.0
362,0.0,0.0,0.977984005605,0.208679861943,0.0,0.0,0.0019198621771900001,0.0,0.0,0.0
363,0.0,0.0,0.977892858744,0.20910656808800002,0.0,0.0,-0.0205948851735,0.0,0.0,0.0
364,0.0,0.0,0.977710006508,0.209959860863,0.0,0.0,-0.027227136331099997,0.0,0.0,0.0
365,0.0,0.0,0.9774896010070001,0.210983601077,0.0,0.0,-0.026005405854700004,0.0,0.0,0.0
366,0.0,0.0,0.977434332132,0.21123950002300002,0.0,0.0,-0.00855211333477,0.0,0.0,0.0
367,0.0,0.0,0.9772496187369999,0.21209239184700002,0.0,0.0,-0.022165681500300002,0.0,0.0,0.0
368,0.0,0.0,0.976989769728,0.21328616890500002,0.0,0.0,-0.0600393262686,0.0,0.0,0.0
369,0.0,0.0,0.9767658813210001,0.21430915306499998,0.0,0.0,-0.010646508437200001,0.0,0.0,0.0
370,0.0,0.0,0.9767658813210001,0.21430915306499998,0.0,0.0,-0.008901179185170001,0.0,0.0,0.0
371,0.0,0.0,0.976634785074,0.214905785365,0.0,0.0,-0.025830872929500003,0.0,0.0,0.0
372,0.0,0.0,0.9765972620640001,0.215076237017,0.0,0.0,-0.0219911485751,0.0,0.0,0.0
373,0.0,0.0,0.9764845145450001,0.21558755264199997,0.0,0.0,-0.015358897417600001,0.0,0.0,0.0
374,0.0,0.0,0.976446872546,0.215757978057,0.0,0.0,-0.00872664625997,0.0,0.0,0.0
375,0.0,0.0,0.976465697264,0.215672766171,0.0,0.0,0.00558505360638,0.0,0.0,0.0
376,0.0,0.0,0.9764092008030001,0.21592839689800003,0.0,0.0,-0.0315904594611,0.0,0.0,0.0
377,0.0,0.0,0.976163609536,0.217035958811,0.0,0.0,-0.0132645023152,0.0,0.0,0.0
378,0.0,0.0,0.976144665859,0.21712114433000002,0.0,0.0,0.0244346095279,0.0,0.0,0.0
379,0.0,0.0,0.97618254578,0.21695077164,0.0,0.0,0.013962634016,0.0,0.0,0.0
380,0.0,0.0,0.9760877902249999,0.21737669096200002,0.0,0.0,-0.0198967534727,0.0,0.0,0.0
381,0.0,0.0,0.9760308476909999,0.217632222696,0.0,0.0,-0.0275762021815,0.0,0.0,0.0
382,0.0,0.0,0.975878673897,0.21831356768000004,0.0,0.0,-0.028274333882299996,0.0,0.0,0.0
383,0.0,0.0,0.975859618728,0.21839872832899998,0.0,0.0,0.0034906585039899997,0.0,0.0,0.0
384,0.0,0.0,0.975687787806,0.219165099243,0.0,0.0,-0.0359537825911,0.0,0.0,0.0
385,0.0,0.0,0.975572899489,0.219675938108,0.0,0.0,-0.0169296937443,0.0,0.0,0.0
386,0.0,0.0,0.975515355031,0.219931334964,0.0,0.0,0.004014257279590001,0.0,0.0,0.0
387,0.0,0.0,0.975438525082,0.220271840655,0.0,0.0,-0.0183259571459,0.0,0.0,0.0
388,0.0,0.0,0.975361576279,0.220612319507,0.0,0.0,0.0,0.0,0.0,0.0
389,0.0,0.0,0.975226629909,0.22120809279,0.0,0.0,-0.0293215314335,0.0,0.0,0.0
390,0.0,0.0,0.9750913196269999,0.221803783528,0.0,0.0,-0.0275762021815,0.0,0.0,0.0
391,0.0,0.0,0.9749750497799998,0.22231430972199998,0.0,0.0,-0.00994837673637,0.0,0.0,0.0
392,0.0,0.0,0.97481960753,0.222994916479,0.0,0.0,-0.0101229096616,0.0,0.0,0.0
393,0.0,0.0,0.9748390637950001,0.22290984657200003,0.0,0.0,0.004014257279590001,0.0,0.0,0.0
394,0.0,0.0,0.9747027140440001,0.223505300241,0.0,0.0,-0.0214675497995,0.0,0.0,0.0
395,0.0,0.0,0.974605098677,0.223930573241,0.0,0.0,-0.00628318530718,0.0,0.0,0.0
396,0.0,0.0,0.974585553337,0.224015622728,0.0,0.0,-0.00418879020479,0.0,0.0,0.0
397,0.0,0.0,0.9744877153120001,0.224440844558,0.0,0.0,-0.020071286397900002,0.0,0.0,0.0
398,0.0,0.0,0.97440931131,0.224780991261,0.0,0.0,-0.0280998009571,0.0,0.0,0.0
399,0.0,0.0,0.9742718186210001,0.225376182061,0.0,0.0,-0.00593411945678,0.0,0.0,0.0
400,0.0,0.0,0.9742718186210001,0.225376182061,0.0,0.0,-0.0038397243543899996,0.0,0.0,0.0
401,0.0,0.0,0.974114238953,0.226056297124,0.0,0.0,-0.0230383461263,0.0,0.0,0.0
402,0.0,0.0,0.974074769849,0.226226308688,0.0,0.0,-0.010646508437200001,0.0,0.0,0.0
403,0.0,0.0,0.9739957426279999,0.226566311137,0.0,0.0,-0.013962634016,0.0,0.0,0.0
404,0.0,0.0,0.9738967917110001,0.22699127537099997,0.0,0.0,-0.0239110107523,0.0,0.0,0.0
405,0.0,0.0,0.97383733216,0.227246233173,0.0,0.0,-0.023387411976700002,0.0,0.0,0.0
406,0.0,0.0,0.9737579489329999,0.227586152678,0.0,0.0,-0.00628318530718,0.0,0.0,0.0
407,0.0,0.0,0.973718212825,0.227756102034,0.0,0.0,-0.024783675378299997,0.0,0.0,0.0
408,0.0,0.0,0.9735789028730001,0.22835087011100003,0.0,0.0,-0.014137166941200001,0.0,0.0,0.0
409,0.0,0.0,0.973399256261,0.22911544668499997,0.0,0.0,-0.0389208423195,0.0,0.0,0.0
410,0.0,0.0,0.973299193131,0.22954015040999998,0.0,0.0,-0.0160570291183,0.0,0.0,0.0
411,0.0,0.0,0.973118612547,0.23030450693500001,0.0,0.0,-0.00418879020479,0.0,0.0,0.0
412,0.0,0.0,0.9730582856209999,0.230559260896,0.0,0.0,-0.0230383461263,0.0,0.0,0.0
413,0.0,0.0,0.9729374316949999,0.231068721395,0.0,0.0,-0.0101229096616,0.0,0.0,0.0
414,0.0,0.0,0.9726949236669999,0.232087452208,0.0,0.0,-0.0431096325243,0.0,0.0,0.0
415,0.0,0.0,0.9726138506049999,0.232426972642,0.0,0.0,-0.00279252680319,0.0,0.0,0.0
416,0.0,0.0,0.972532659033,0.23276646475499999,0.0,0.0,-0.020943951023900002,0.0,0.0,0.0
417,0.0,0.0,0.972308771222,0.233699921703,0.0,0.0,-0.0312413936107,0.0,0.0,0.0
418,0.0,0.0,0.972247555406,0.233954463532,0.0,0.0,-0.012391837689200002,0.0,0.0,0.0
419,0.0,0.0,0.972227135326,0.23403930724599997,0.0,0.0,-0.009075712110370001,0.0,0.0,0.0
420,0.0,0.0,0.972063508154,0.23471799274099997,0.0,0.0,-0.0364773813667,0.0,0.0,0.0
421,0.0,0.0,0.9719199457340001,0.235311748717,0.0,0.0,-0.000872664625997,0.0,0.0,0.0
422,0.0,0.0,0.9719199457340001,0.235311748717,0.0,0.0,-0.00715584993318,0.0,0.0,0.0
423,0.0,0.0,0.971755430305,0.235990219443,0.0,0.0,-0.026005405854700004,0.0,0.0,0.0
424,0.0,0.0,0.971611090784,0.236583786987,0.0,0.0,-0.012042771838799999,0.0,0.0,0.0
425,0.0,0.0,0.9715904412540001,0.236668575149,0.0,0.0,-0.012391837689200002,0.0,0.0,0.0
426,0.0,0.0,0.9714663887,0.23717726625,0.0,0.0,-0.027925268031900003,0.0,0.0,0.0
427,0.0,0.0,0.971404262546,0.23743158742400003,0.0,0.0,-0.0249582083035,0.0,0.0,0.0
428,0.0,0.0,0.971321324108,0.237770657007,0.0,0.0,-0.0129154364648,0.0,0.0,0.0
429,0.0,0.0,0.9712798105060001,0.23794018093699998,0.0,0.0,-0.0274016692563,0.0,0.0,0.0
430,0.0,0.0,0.971092633177,0.238702948851,0.0,0.0,-0.0190240888467,0.0,0.0,0.0
431,0.0,0.0,0.971071798717,0.238787691761,0.0,0.0,-0.0132645023152,0.0,0.0,0.0
432,0.0,0.0,0.970904856829,0.239465569521,0.0,0.0,-0.0183259571459,0.0,0.0,0.0
433,0.0,0.0,0.970758394496,0.24005861683200003,0.0,0.0,-0.0359537825911,0.0,0.0,0.0
434,0.0,0.0,0.970695514031,0.24031275255600001,0.0,0.0,-0.022165681500300002,0.0,0.0,0.0
435,0.0,0.0,0.970632567035,0.240566871809,0.0,0.0,-0.015533430342700001,0.0,0.0,0.0
436,0.0,0.0,0.970590565411,0.240736275485,0.0,0.0,-0.0207694180987,0.0,0.0,0.0
437,0.0,0.0,0.970401192248,0.241498501205,0.0,0.0,-0.0171042266695,0.0,0.0,0.0
438,0.0,0.0,0.9702534881620001,0.242091240466,0.0,0.0,-0.0165806278939,0.0,0.0,0.0
439,0.0,0.0,0.9701265964899999,0.242599230795,0.0,0.0,-0.020943951023900002,0.0,0.0,0.0
440,0.0,0.0,0.9699782200579999,0.24319180210900002,0.0,0.0,-0.0144862327916,0.0,0.0,0.0
441,0.0,0.0,0.9698720152850001,0.24361501178599998,0.0,0.0,-0.0109955742876,0.0,0.0,0.0
442,0.0,0.0,0.9697869185169999,0.243953546137,0.0,0.0,-0.0116937059884,0.0,0.0,0.0
443,0.0,0.0,0.9696803813889999,0.24437667226999998,0.0,0.0,-0.0165806278939,0.0,0.0,0.0
444,0.0,0.0,0.969595018763,0.24471513968199998,0.0,0.0,-0.005759586531579999,0.0,0.0,0.0
445,0.0,0.0,0.9695095379950001,0.245053577276,0.0,0.0,-0.020943951023900002,0.0,0.0,0.0
446,0.0,0.0,0.9694025209139999,0.24547658227400002,0.0,0.0,-0.0303687289847,0.0,0.0,0.0
447,0.0,0.0,0.969316774365,0.24581495262800002,0.0,0.0,0.004014257279590001,0.0,0.0,0.0
448,0.0,0.0,0.969166433711,0.246407028649,0.0,0.0,-0.0171042266695,0.0,0.0,0.0
449,0.0,0.0,0.969166433711,0.246407028649,0.0,0.0,-0.004014257279590001,0.0,0.0,0.0
450,0.0,0.0,0.969058826108,0.246829883811,0.0,0.0,-0.0144862327916,0.0,0.0,0.0
451,0.0,0.0,0.969037282447,0.24691444920699998,0.0,0.0,-0.009075712110370001,0.0,0.0,0.0
452,0.0,0.0,0.96895103401,0.247252691981,0.0,0.0,-0.0219911485751,0.0,0.0,0.0
453,0.0,0.0,0.9689078655159999,0.24742180207199999,0.0,0.0,-0.0225147473507,0.0,0.0,0.0
454,0.0,0.0,0.968799815159,0.247844544316,0.0,0.0,-0.0190240888467,0.0,0.0,0.0
455,0.0,0.0,0.968756543371,0.248013628006,0.0,0.0,-0.0116937059884,0.0,0.0,0.0
456,0.0,0.0,0.968648234795,0.24843630416700002,0.0,0.0,-0.0219911485751,0.0,0.0,0.0
457,0.0,0.0,0.968452814643,0.249197002009,0.0,0.0,-0.014835298642,0.0,0.0,0.0
458,0.0,0.0,0.968452814643,0.249197002009,0.0,0.0,0.00296705972839,0.0,0.0,0.0
459,0.0,0.0,0.968300408174,0.249788549637,0.0,0.0,-0.023387411976700002,0.0,0.0,0.0
460,0.0,0.0,0.968213156531,0.250126535017,0.0,0.0,-0.014137166941200001,0.0,0.0,0.0
461,0.0,0.0,0.9681257869140001,0.250464489921,0.0,0.0,-0.00558505360638,0.0,0.0,0.0
462,0.0,0.0,0.9680164090090001,0.250886890629,0.0,0.0,-0.0132645023152,0.0,0.0,0.0
463,0.0,0.0,0.9679287739899999,0.251224776808,0.0,0.0,-0.0167551608191,0.0,0.0,0.0
464,0.0,0.0,0.967819064366,0.251647091481,0.0,0.0,-0.006632251157579999,0.0,0.0,0.0
465,0.0,0.0,0.9677751289219999,0.251816003939,0.0,0.0,-0.0101229096616,0.0,0.0,0.0
466,0.0,0.0,0.9677311639980001,0.25198490872699997,0.0,0.0,-0.000698131700798,0.0,0.0,0.0
467,0.0,0.0,0.967621122723,0.252407137104,0.0,0.0,-0.0239110107523,0.0,0.0,0.0
468,0.0,0.0,0.9674888300210001,0.252913747716,0.0,0.0,-0.010471975512,0.0,0.0,0.0
469,0.0,0.0,0.9674446735100001,0.253082602519,0.0,0.0,-0.006981317007979999,0.0,0.0,0.0
470,0.0,0.0,0.9672898936509999,0.25367353358399997,0.0,0.0,-0.03403392041390001,0.0,0.0,0.0
471,0.0,0.0,0.967112560407,0.254348767449,0.0,0.0,0.000349065850399,0.0,0.0,0.0
472,0.0,0.0,0.9669792511399999,0.254855111512,0.0,0.0,-0.029670597283900004,0.0,0.0,0.0
473,0.0,0.0,0.966845676771,0.255361385706,0.0,0.0,-0.0158824961931,0.0,0.0,0.0
474,0.0,0.0,0.966711837335,0.255867589891,0.0,0.0,-0.021118483949099997,0.0,0.0,0.0
475,0.0,0.0,0.9662862641709999,0.25747010637,0.0,0.0,-0.185528499487,0.0,0.0,0.0
476,0.0,0.0,0.965540797713,0.260251739574,0.0,0.0,-0.344527994344,0.0,0.0,0.0
477,0.0,0.0,0.963068637394,0.269256011385,0.0,0.0,-0.20769418098700002,0.0,0.0,0.0
478,0.0,0.0,0.96250259709,0.27127246560400003,0.0,0.0,-0.230383461263,0.0,0.0,0.0
479,0.0,0.0,0.9609966602259999,0.276559973666,0.0,0.0,-0.17924531417999998,0.0,0.0,0.0
480,0.0,0.0,0.958770150236,0.28418268599,0.0,0.0,-0.23963370629900002,0.0,0.0,0.0
481,0.0,0.0,0.958172857028,0.286190104747,0.0,0.0,-0.22619467105799998,0.0,0.0,0.0
482,0.0,0.0,0.9541620071200001,0.299290601539,0.0,0.0,-0.592713813977,0.0,0.0,0.0
483,0.0,0.0,0.9492609414390001,0.31448953092099996,0.0,0.0,-0.545589924173,0.0,0.0,0.0
484,0.0,0.0,0.9476570144679999,0.319290123445,0.0,0.0,-0.537561409614,0.0,0.0,0.0
485,0.0,0.0,0.94226219271,0.334876037048,0.0,0.0,-0.49724430389300006,0.0,0.0,0.0
486,0.0,0.0,0.94061443465,0.339476781722,0.0,0.0,-0.536688744988,0.0,0.0,0.0
487,0.0,0.0,0.935413180769,0.353556475325,0.0,0.0,-0.533198086484,0.0,0.0,0.0
488,0.0,0.0,0.928841886572,0.370476382175,0.0,0.0,-0.522202512197,0.0,0.0,0.0
489,0.0,0.0,0.923143130865,0.384456447386,0.0,0.0,-0.544193660772,0.0,0.0,0.0
490,0.0,0.0,0.9161879571170001,0.400748833103,0.0,0.0,-0.572467994654,0.0,0.0,0.0
491,0.0,0.0,0.910142128311,0.414296157687,0.0,0.0,-0.5300564938310001,0.0,0.0,0.0
492,0.0,0.0,0.9025101322419999,0.4306686211,0.0,0.0,-0.5907939518,0.0,0.0,0.0
493,0.0,0.0,0.895439980961,0.44518225536899997,0.0,0.0,-0.546288055874,0.0,0.0,0.0
494,0.0,0.0,0.8872122245749999,0.461361537804,0.0,0.0,-0.539132205941,0.0,0.0,0.0
495,0.0,0.0,0.8789003791910001,0.477005370471,0.0,0.0,-0.541575666894,0.0,0.0,0.0
496,0.0,0.0,0.872026562436,0.48945855228600005,0.0,0.0,-0.526042236551,0.0,0.0,0.0
497,0.0,0.0,0.8631753267200001,0.5049043031530001,0.0,0.0,-0.578576647036,0.0,0.0,0.0
498,0.0,0.0,0.8554094632879999,0.517952362788,0.0,0.0,-0.5300564938310001,0.0,0.0,0.0
499,0.0,0.0,0.846193166128,0.5328762760710001,0.0,0.0,-0.516442925665,0.0,0.0,0.0
500,0.0,0.0,0.8380521550040001,0.5455901259120001,0.0,0.0,-0.5344198169609999,0.0,0.0,0.0
501,0.0,0.0,0.8282559840979999,0.560349912828,0.0,0.0,-0.553618438733,0.0,0.0,0.0
502,0.0,0.0,0.825409201191,0.564534897583,0.0,0.0,-0.55117497778,0.0,0.0,0.0
503,0.0,0.0,0.816238432831,0.577715172702,0.0,0.0,-0.573166126355,0.0,0.0,0.0
504,0.0,0.0,0.813253132618,0.581910080929,0.0,0.0,-0.542971930295,0.0,0.0,0.0
505,0.0,0.0,0.8031815384309999,0.595734350465,0.0,0.0,-0.5176646561420001,0.0,0.0,0.0
506,0.0,0.0,0.8002083194149999,0.599722140278,0.0,0.0,-0.542622864445,0.0,0.0,0.0
507,0.0,0.0,0.789191285809,0.61414746959,0.0,0.0,-0.5333726194089999,0.0,0.0,0.0
508,0.0,0.0,0.779775226961,0.62605957817,0.0,0.0,-0.539132205941,0.0,0.0,0.0
509,0.0,0.0,0.776541499284,0.630066107555,0.0,0.0,-0.565137611796,0.0,0.0,0.0
510,0.0,0.0,0.764415271534,0.644724198899,0.0,0.0,-0.5712462641780001,0.0,0.0,0.0
511,0.0,0.0,0.760915806324,0.648850626637,0.0,0.0,-0.581369173839,0.0,0.0,0.0
512,0.0,0.0,0.750803182375,0.6605259883869999,0.0,0.0,-0.518362787842,0.0,0.0,0.0
513,0.0,0.0,0.7392198370559999,0.673464202837,0.0,0.0,-0.5342452840349999,0.0,0.0,0.0
514,0.0,0.0,0.728789388429,0.6847379260079999,0.0,0.0,-0.580321976288,0.0,0.0,0.0
515,0.0,0.0,0.716301943425,0.697790459842,0.0,0.0,-0.5667084081229999,0.0,0.0,0.0
516,0.0,0.0,0.705191288133,0.70901709933,0.0,0.0,-0.56897733615,0.0,0.0,0.0
517,0.0,0.0,0.692269134252,0.721639415333,0.0,0.0,-0.540353936417,0.0,0.0,0.0
518,0.0,0.0,0.680912624911,0.7323646613789999,0.0,0.0,-0.55553830091,0.0,0.0,0.0
519,0.0,0.0,0.6752040775139999,0.737630973935,0.0,0.0,-0.5665338751969999,0.0,0.0,0.0
520,0.0,0.0,0.663338688694,0.748319306233,0.0,0.0,-0.566184809347,0.0,0.0,0.0
521,0.0,0.0,0.652296860586,0.757963591256,0.0,0.0,-0.233525053917,0.0,0.0,0.0
522,0.0,0.0,0.650906725196,0.759157714243,0.0,0.0,-0.19303341527100001,0.0,0.0,0.0
523,0.0,0.0,0.645990760607,0.763345228065,0.0,0.0,-0.22514747350699998,0.0,0.0,0.0
524,0.0,0.0,0.643455864734,0.765483213493,0.0,0.0,-0.25795966344500004,0.0,0.0,0.0
525,0.0,0.0,0.636414844456,0.771346968462,0.0,0.0,-0.325329372572,0.0,0.0,0.0
526,0.0,0.0,0.634258358726,0.773121164104,0.0,0.0,-0.301941960595,0.0,0.0,0.0
527,0.0,0.0,0.626535798911,0.779392643462,0.0,0.0,-0.308050612977,0.0,0.0,0.0
528,0.0,0.0,0.624561364338,0.780975737252,0.0,0.0,-0.253596340315,0.0,0.0,0.0
529,0.0,0.0,0.623811393807,0.7815749132080001,0.0,0.0,0.027227136331099997,0.0,0.0,0.0
530,0.0,0.0,0.623265599609,0.7820102252169999,0.0,0.0,-0.017278759594700002,0.0,0.0,0.0
531,0.0,0.0,0.623060848454,0.782173368969,0.0,0.0,-0.0329867228627,0.0,0.0,0.0
532,0.0,0.0,0.622173100162,0.782879705596,0.0,0.0,-0.014311699866400001,0.0,0.0,0.0
533,0.0,0.0,0.621831445234,0.783151105291,0.0,0.0,-0.0164060949687,0.0,0.0,0.0
534,0.0,0.0,0.6216947501100001,0.7832596234229999,0.0,0.0,-0.0160570291183,0.0,0.0,0.0
535,0.0,0.0,0.621010990507,0.783801856128,0.0,0.0,-0.029496064358700003,0.0,0.0,0.0
536,0.0,0.0,0.620874181818,0.7839102310539999,0.0,0.0,-0.00645771823238,0.0,0.0,0.0
537,0.0,0.0,0.620600507707,0.7841269092659999,0.0,0.0,-0.025830872929500003,0.0,0.0,0.0
538,0.0,0.0,0.619710544777,0.784830453469,0.0,0.0,-0.04485496177630001,0.0,0.0,0.0
539,0.0,0.0,0.6192310035409999,0.785208866642,0.0,0.0,-0.0109955742876,0.0,0.0,0.0
540,0.0,0.0,0.618888332604,0.785478982383,0.0,0.0,-0.029670597283900004,0.0,0.0,0.0
541,0.0,0.0,0.6182026373139999,0.786018765182,0.0,0.0,-0.0300196631343,0.0,0.0,0.0
542,0.0,0.0,0.6176537420889999,0.786450160458,0.0,0.0,-0.0197222205475,0.0,0.0,0.0
543,0.0,0.0,0.6172418731,0.7867734553810001,0.0,0.0,-0.014311699866400001,0.0,0.0,0.0
544,0.0,0.0,0.616486340532,0.7873656024600001,0.0,0.0,-0.030892327760299997,0.0,0.0,0.0
545,0.0,0.0,0.615730239892,0.7879570240070001,0.0,0.0,-0.039968039870699995,0.0,0.0,0.0
546,0.0,0.0,0.614835934971,0.788655040603,0.0,0.0,-0.0389208423195,0.0,0.0,0.0
547,0.0,0.0,0.61394083875,0.789352042193,0.0,0.0,-0.0190240888467,0.0,0.0,0.0
548,0.0,0.0,0.613044952383,0.790048027881,0.0,0.0,-0.0385717764691,0.0,0.0,0.0
549,0.0,0.0,0.612286278385,0.7906361446969999,0.0,0.0,-0.0432841654495,0.0,0.0,0.0
550,0.0,0.0,0.611319877395,0.791383603256,0.0,0.0,-0.0383972435439,0.0,0.0,0.0
551,0.0,0.0,0.6107672384839999,0.791810192151,0.0,0.0,-0.0240855436775,0.0,0.0,0.0
552,0.0,0.0,0.610559922132,0.791970063504,0.0,0.0,-0.0225147473507,0.0,0.0,0.0
553,0.0,0.0,0.61000687398,0.792396121708,0.0,0.0,-0.0300196631343,0.0,0.0,0.0
554,0.0,0.0,0.60917674438,0.793034484816,0.0,0.0,-0.0385717764691,0.0,0.0,0.0
555,0.0,0.0,0.608969107563,0.793193939736,0.0,0.0,-0.0286233997327,0.0,0.0,0.0
556,0.0,0.0,0.60855370873,0.793512686471,0.0,0.0,-0.0205948851735,0.0,0.0,0.0
557,0.0,0.0,0.608068865901,0.793884282702,0.0,0.0,-0.0364773813667,0.0,0.0,0.0
558,0.0,0.0,0.6077224106629999,0.794149527216,0.0,0.0,-0.04485496177630001,0.0,0.0,0.0
559,0.0,0.0,0.60709849971,0.794626586297,0.0,0.0,-0.024783675378299997,0.0,0.0,0.0
560,0.0,0.0,0.606751720674,0.7948914073379999,0.0,0.0,-0.0188495559215,0.0,0.0,0.0
561,0.0,0.0,0.6061272273489999,0.7953677038120001,0.0,0.0,-0.0371755130675,0.0,0.0,0.0
562,0.0,0.0,0.605432907381,0.795896346681,0.0,0.0,-0.021118483949099997,0.0,0.0,0.0
563,0.0,0.0,0.604946609039,0.7962660360780001,0.0,0.0,-0.0291469985083,0.0,0.0,0.0
564,0.0,0.0,0.6044600849580001,0.796635428344,0.0,0.0,-0.00994837673637,0.0,0.0,0.0
565,0.0,0.0,0.603834222589,0.7971099244329999,0.0,0.0,-0.0190240888467,0.0,0.0,0.0
566,0.0,0.0,0.603625519008,0.797267980545,0.0,0.0,-0.0321140582367,0.0,0.0,0.0
567,0.0,0.0,0.602790291109,0.797899658444,0.0,0.0,-0.0256563400043,0.0,0.0,0.0
568,0.0,0.0,0.602233105213,0.798320290977,0.0,0.0,-0.028972465583099998,0.0,0.0,0.0
569,0.0,0.0,0.601327052226,0.799002988894,0.0,0.0,-0.04258603374869999,0.0,0.0,0.0
570,0.0,0.0,0.60083885691,0.799370169588,0.0,0.0,-0.042411500823499995,0.0,0.0,0.0
571,0.0,0.0,0.599931613772,0.800051285105,0.0,0.0,-0.039618974020300006,0.0,0.0,0.0
572,0.0,0.0,0.598883835404,0.8008359080930001,0.0,0.0,-0.0338593874887,0.0,0.0,0.0
573,0.0,0.0,0.598674156533,0.8009926680689999,0.0,0.0,-0.022165681500300002,0.0,0.0,0.0
574,0.0,0.0,0.597974930696,0.801514804766,0.0,0.0,-0.0301941960595,0.0,0.0,0.0
575,0.0,0.0,0.596995249599,0.8022447706010001,0.0,0.0,-0.0305432619099,0.0,0.0,0.0
576,0.0,0.0,0.596855222381,0.8023489537080001,0.0,0.0,-0.0205948851735,0.0,0.0,0.0
577,0.0,0.0,0.596364983966,0.802713402093,0.0,0.0,-0.024609142453099996,0.0,0.0,0.0
578,0.0,0.0,0.596014677412,0.8029735389839999,0.0,0.0,-0.0293215314335,0.0,0.0,0.0
579,0.0,0.0,0.59545395093,0.803389440011,0.0,0.0,-0.0268780704807,0.0,0.0,0.0
580,0.0,0.0,0.595313723952,0.803493354094,0.0,0.0,-0.0195476876223,0.0,0.0,0.0
581,0.0,0.0,0.594682478203,0.8039606645340001,0.0,0.0,-0.013788101090799998,0.0,0.0,0.0
582,0.0,0.0,0.594612317136,0.804012557309,0.0,0.0,-0.0160570291183,0.0,0.0,0.0
583,0.0,0.0,0.594050865624,0.804427479051,0.0,0.0,-0.022340214425499997,0.0,0.0,0.0
584,0.0,0.0,0.593418886604,0.804893797356,0.0,0.0,-0.020071286397900002,0.0,0.0,0.0
585,0.0,0.0,0.592927094274,0.805256146127,0.0,0.0,-0.028448866807499997,0.0,0.0,0.0
586,0.0,0.0,0.592294464767,0.8057215815690001,0.0,0.0,-0.024609142453099996,0.0,0.0,0.0
587,0.0,0.0,0.5918021669829999,0.806083243316,0.0,0.0,-0.014835298642,0.0,0.0,0.0
588,0.0,0.0,0.591309648364,0.8064446042669999,0.0,0.0,-0.0164060949687,0.0,0.0,0.0
589,0.0,0.0,0.590676085943,0.806908769004,0.0,0.0,-0.0254818070791,0.0,0.0,0.0
590,0.0,0.0,0.590042159163,0.807372435998,0.0,0.0,-0.025830872929500003,0.0,0.0,0.0
591,0.0,0.0,0.589407868416,0.807835604965,0.0,0.0,-0.0181514242207,0.0,0.0,0.0
592,0.0,0.0,0.588773214093,0.808298275618,0.0,0.0,-0.0427605666739,0.0,0.0,0.0
593,0.0,0.0,0.587644043238,0.8091195699320001,0.0,0.0,-0.0268780704807,0.0,0.0,0.0
594,0.0,0.0,0.587149670609,0.809478390264,0.0,0.0,-0.00994837673637,0.0,0.0,0.0
595,0.0,0.0,0.58665507888,0.809836908534,0.0,0.0,-0.021118483949099997,0.0,0.0,0.0
596,0.0,0.0,0.585948139565,0.8103485532410001,0.0,0.0,-0.0328121899375,0.0,0.0,0.0
597,0.0,0.0,0.5853115126439999,0.810808505855,0.0,0.0,-0.00523598775598,0.0,0.0,0.0
598,0.0,0.0,0.585240754026,0.8108595808319999,0.0,0.0,-0.023387411976700002,0.0,0.0,0.0
599,0.0,0.0,0.584462115185,0.81142099795,0.0,0.0,-0.03403392041390001,0.0,0.0,0.0
600,0.0,0.0,0.5843204866030001,0.8115229934729999,0.0,0.0,-0.012042771838799999,0.0,0.0,0.0
601,0.0,0.0,0.584108010358,0.8116759404070001,0.0,0.0,-0.0150098315672,0.0,0.0,0.0
602,0.0,0.0,0.583541211356,0.812083526892,0.0,0.0,-0.036128315516300004,0.0,0.0,0.0
603,0.0,0.0,0.583328588391,0.812236269792,0.0,0.0,-0.029670597283900004,0.0,0.0,0.0
604,0.0,0.0,0.583045028914,0.812439840394,0.0,0.0,-0.000698131700798,0.0,0.0,0.0
605,0.0,0.0,0.583045028914,0.812439840394,0.0,0.0,-0.000698131700798,0.0,0.0,0.0
606,0.0,0.0,0.5827613983950001,0.812643312002,0.0,0.0,-0.005410520681180001,0.0,0.0,0.0
607,0.0,0.0,0.582690479669,0.8126941644329999,0.0,0.0,-0.00558505360638,0.0,0.0,0.0
608,0.0,0.0,0.582122970157,0.813100761047,0.0,0.0,-0.0239110107523,0.0,0.0,0.0
609,0.0,0.0,0.5819810484369999,0.8132023482870001,0.0,0.0,-0.00645771823238,0.0,0.0,0.0
610,0.0,0.0,0.581768132619,0.8133546827,0.0,0.0,-0.0129154364648,0.0,0.0,0.0
611,0.0,0.0,0.581342181375,0.813659184275,0.0,0.0,-0.035604716740699996,0.0,0.0,0.0
612,0.0,0.0,0.5810581253279999,0.813862061402,0.0,0.0,-0.042236967898300004,0.0,0.0,0.0
613,0.0,0.0,0.580489800869,0.814267518134,0.0,0.0,-0.0115191730632,0.0,0.0,0.0
614,0.0,0.0,0.580489800869,0.814267518134,0.0,0.0,0.00523598775598,0.0,0.0,0.0
615,0.0,0.0,0.580489800869,0.814267518134,0.0,0.0,0.0013962634016,0.0,0.0,0.0
616,0.0,0.0,0.58027660624,0.814419462102,0.0,0.0,-0.0171042266695,0.0,0.0,0.0
617,0.0,0.0,0.579565670322,0.814925538797,0.0,0.0,-0.0195476876223,0.0,0.0,0.0
618,0.0,0.0,0.579210036818,0.815178344443,0.0,0.0,-0.0216420827247,0.0,0.0,0.0
619,0.0,0.0,0.578996603779,0.815329953339,0.0,0.0,0.00314159265359,0.0,0.0,0.0
620,0.0,0.0,0.578498439056,0.8156834900929999,0.0,0.0,-0.025830872929500003,0.0,0.0,0.0
621,0.0,0.0,0.578000058462,0.816036722469,0.0,0.0,-0.0109955742876,0.0,0.0,0.0
622,0.0,0.0,0.5780712689,0.815986279341,0.0,0.0,0.00261799387799,0.0,0.0,0.0
623,0.0,0.0,0.577358966516,0.81649043092,0.0,0.0,-0.029496064358700003,0.0,0.0,0.0
624,0.0,0.0,0.577002650408,0.8167422735609999,0.0,0.0,-0.0109955742876,0.0,0.0,0.0
625,0.0,0.0,0.576860093202,0.8168429670819999,0.0,0.0,-0.00523598775598,0.0,0.0,0.0
626,0.0,0.0,0.576147043678,0.817346061384,0.0,0.0,-0.0303687289847,0.0,0.0,0.0
627,0.0,0.0,0.575933043238,0.817496868316,0.0,0.0,-0.00523598775598,0.0,0.0,0.0
628,0.0,0.0,0.5757190033240001,0.817647619217,0.0,0.0,-0.0165806278939,0.0,0.0,0.0
629,0.0,0.0,0.575504923951,0.8177983140780001,0.0,0.0,0.00488692190558,0.0,0.0,0.0
630,0.0,0.0,0.575504923951,0.8177983140780001,0.0,0.0,-0.0012217304764,0.0,0.0,0.0
631,0.0,0.0,0.575005252043,0.8181497174250001,0.0,0.0,-0.0169296937443,0.0,0.0,0.0
632,0.0,0.0,0.574433935711,0.8185509474089999,0.0,0.0,-0.0178023583703,0.0,0.0,0.0
633,0.0,0.0,0.5743625014779999,0.8186010731100001,0.0,0.0,-0.0034906585039899997,0.0,0.0,0.0
634,0.0,0.0,0.574005264714,0.8188516080949999,0.0,0.0,-0.032637657012299995,0.0,0.0,0.0
635,0.0,0.0,0.5730759378570001,0.819502269338,0.0,0.0,-0.0188495559215,0.0,0.0,0.0
636,0.0,0.0,0.5730759378570001,0.819502269338,0.0,0.0,-0.0038397243543899996,0.0,0.0,0.0
637,0.0,0.0,0.572789842692,0.819702260646,0.0,0.0,-0.00942477796077,0.0,0.0,0.0
638,0.0,0.0,0.572646768935,0.819802218848,0.0,0.0,-0.0151843644924,0.0,0.0,0.0
639,0.0,0.0,0.57221744302,0.820101943604,0.0,0.0,-0.0157079632679,0.0,0.0,0.0
640,0.0,0.0,0.5715731600399999,0.820551109147,0.0,0.0,-0.0101229096616,0.0,0.0,0.0
641,0.0,0.0,0.571429938149,0.820650854984,0.0,0.0,-0.015358897417600001,0.0,0.0,0.0
642,0.0,0.0,0.5707852242979999,0.8210994018529999,0.0,0.0,-0.020071286397900002,0.0,0.0,0.0
643,0.0,0.0,0.570498571769,0.821298593454,0.0,0.0,-0.010821041362399999,0.0,0.0,0.0
644,0.0,0.0,0.570498571769,0.821298593454,0.0,0.0,-0.0185004900711,0.0,0.0,0.0
645,0.0,0.0,0.5700684626479999,0.821597193212,0.0,0.0,-0.0178023583703,0.0,0.0,0.0
646,0.0,0.0,0.5697816364,0.821796134587,0.0,0.0,-0.0179768912955,0.0,0.0,0.0
647,0.0,0.0,0.569494740726,0.821994975827,0.0,0.0,-0.00942477796077,0.0,0.0,0.0
648,0.0,0.0,0.569136023557,0.822243386529,0.0,0.0,0.00314159265359,0.0,0.0,0.0
649,0.0,0.0,0.568992506345,0.82234270698,0.0,0.0,-0.0191986217719,0.0,0.0,0.0
650,0.0,0.0,0.56870541993,0.822541272729,0.0,0.0,-0.0232128790515,0.0,0.0,0.0
651,0.0,0.0,0.568418264219,0.8227397382539999,0.0,0.0,-0.012042771838799999,0.0,0.0,0.0
652,0.0,0.0,0.567987400802,0.8230372485680001,0.0,0.0,-0.0197222205475,0.0,0.0,0.0
653,0.0,0.0,0.567843745053,0.8231363685340001,0.0,0.0,-0.0169296937443,0.0,0.0,0.0
654,0.0,0.0,0.567484530014,0.8233840587450001,0.0,0.0,-0.0144862327916,0.0,0.0,0.0
655,0.0,0.0,0.567412674039,0.823433577977,0.0,0.0,-0.0136135681656,0.0,0.0,0.0
656,0.0,0.0,0.566837670727,0.823829506054,0.0,0.0,-0.030717794835099996,0.0,0.0,0.0
657,0.0,0.0,0.5666938767199999,0.823928425343,0.0,0.0,-0.017278759594700002,0.0,0.0,0.0
658,0.0,0.0,0.566478153345,0.824076757215,0.0,0.0,-0.006632251157579999,0.0,0.0,0.0
659,0.0,0.0,0.566406236925,0.824126188622,0.0,0.0,-0.0181514242207,0.0,0.0,0.0
660,0.0,0.0,0.56597464784,0.824422645251,0.0,0.0,-0.0219911485751,0.0,0.0,0.0
661,0.0,0.0,0.5655429035890001,0.8247188758600001,0.0,0.0,-0.011868238913600001,0.0,0.0,0.0
662,0.0,0.0,0.565326973314,0.824866906382,0.0,0.0,-0.0274016692563,0.0,0.0,0.0
663,0.0,0.0,0.565111004292,0.825014880368,0.0,0.0,-0.00314159265359,0.0,0.0,0.0
664,0.0,0.0,0.564894996538,0.825162797808,0.0,0.0,-0.00715584993318,0.0,0.0,0.0
665,0.0,0.0,0.564606925974,0.8253599330850001,0.0,0.0,-0.0198967534727,0.0,0.0,0.0
666,0.0,0.0,0.564318786615,0.825556967794,0.0,0.0,-0.0101229096616,0.0,0.0,0.0
667,0.0,0.0,0.56410263697,0.8257046778139999,0.0,0.0,-0.00680678408278,0.0,0.0,0.0
668,0.0,0.0,0.563958515726,0.82580311972,0.0,0.0,-0.0109955742876,0.0,0.0,0.0
669,0.0,0.0,0.563598137468,0.826049114425,0.0,0.0,-0.000349065850399,0.0,0.0,0.0
670,0.0,0.0,0.563165541926,0.826344100474,0.0,0.0,-0.022863813201099998,0.0,0.0,0.0
671,0.0,0.0,0.563021309096,0.8264423788169999,0.0,0.0,-0.00855211333477,0.0,0.0,0.0
672,0.0,0.0,0.56258850772,0.826737062784,0.0,0.0,-0.026354471705099997,0.0,0.0,0.0
673,0.0,0.0,0.562227722082,0.826982459622,0.0,0.0,-0.0150098315672,0.0,0.0,0.0
674,0.0,0.0,0.562011199316,0.8271296221529999,0.0,0.0,-0.0249582083035,0.0,0.0,0.0
675,0.0,0.0,0.561650242447,0.827374767055,0.0,0.0,-0.0169296937443,0.0,0.0,0.0
676,0.0,0.0,0.561361399958,0.8275707695640001,0.0,0.0,0.000698131700798,0.0,0.0,0.0
677,0.0,0.0,0.561289178647,0.827619754436,0.0,0.0,-0.012391837689200002,0.0,0.0,0.0
678,0.0,0.0,0.560855761037,0.827913531301,0.0,0.0,-0.0204203522483,0.0,0.0,0.0
679,0.0,0.0,0.5604221896639999,0.828207081189,0.0,0.0,-0.0132645023152,0.0,0.0,0.0
680,0.0,0.0,0.560277631725,0.828304880698,0.0,0.0,-0.0249582083035,0.0,0.0,0.0
681,0.0,0.0,0.5597715445620001,0.828646980263,0.0,0.0,-0.0191986217719,0.0,0.0,0.0
682,0.0,0.0,0.559626909856,0.828744666206,0.0,0.0,-0.027052603405900003,0.0,0.0,0.0
683,0.0,0.0,0.5591929034709999,0.829037572555,0.0,0.0,-0.013788101090799998,0.0,0.0,0.0
684,0.0,0.0,0.55875874378,0.829330251619,0.0,0.0,-0.0109955742876,0.0,0.0,0.0
685,0.0,0.0,0.55875874378,0.829330251619,0.0,0.0,0.00244346095279,0.0,0.0,0.0
686,0.0,0.0,0.558541606482,0.829476505893,0.0,0.0,-0.00750491578358,0.0,0.0,0.0
687,0.0,0.0,0.558396827014,0.82957397716,0.0,0.0,-0.014660765716799999,0.0,0.0,0.0
688,0.0,0.0,0.558034803938,0.829817544761,0.0,0.0,0.00314159265359,0.0,0.0,0.0
689,0.0,0.0,0.557962386572,0.829866239325,0.0,0.0,-0.0034906585039899997,0.0,0.0,0.0
690,0.0,0.0,0.5578175390919999,0.8299636094920001,0.0,0.0,-0.0205948851735,0.0,0.0,0.0
691,0.0,0.0,0.557382894718,0.8302555682899999,0.0,0.0,-0.0013962634016,0.0,0.0,0.0
692,0.0,0.0,0.5570930468999999,0.830450081038,0.0,0.0,-0.0164060949687,0.0,0.0,0.0
693,0.0,0.0,0.557020574338,0.830498693415,0.0,0.0,-0.00471238898038,0.0,0.0,0.0
694,0.0,0.0,0.5565131476590001,0.830838802947,0.0,0.0,-0.0144862327916,0.0,0.0,0.0
695,0.0,0.0,0.5562956155,0.8309844692739999,0.0,0.0,-0.0216420827247,0.0,0.0,0.0
696,0.0,0.0,0.555932977181,0.8312271199150001,0.0,0.0,-0.00994837673637,0.0,0.0,0.0
697,0.0,0.0,0.555787892213,0.831324135863,0.0,0.0,-0.0101229096616,0.0,0.0,0.0
698,0.0,0.0,0.555497671492,0.8315180917849999,0.0,0.0,-0.00994837673637,0.0,0.0,0.0
699,0.0,0.0,0.555352535748,0.8316150317540001,0.0,0.0,-0.023561944901900004,0.0,0.0,0.0
700,0.0,0.0,0.551354688728,0.834270943529,0.0,0.0,-0.332834288355,0.0,0.0,0.0
701,0.0,0.0,0.543613999406,0.8393353439769999,0.0,0.0,-0.26179938779899997,0.0,0.0,0.0
702,0.0,0.0,0.5416348549459999,0.8406138732539999,0.0,0.0,-0.250803813512,0.0,0.0,0.0
703,0.0,0.0,0.535384632481,0.8446083680040001,0.0,0.0,-0.264417381677,0.0,0.0,0.0
704,0.0,0.0,0.5328762760710001,0.846193166128,0.0,0.0,-0.340688269989,0.0,0.0,0.0
705,0.0,0.0,0.51951911188,0.8544588301330001,0.0,0.0,-0.612785100375,0.0,0.0,0.0
706,0.0,0.0,0.5150380749100001,0.857167300702,0.0,0.0,-0.553792971658,0.0,0.0,0.0
707,0.0,0.0,0.500226707783,0.865894474414,0.0,0.0,-0.497767902669,0.0,0.0,0.0
708,0.0,0.0,0.49636802539499997,0.868112195148,0.0,0.0,-0.483107136952,0.0,0.0,0.0
709,0.0,0.0,0.48106527593000004,0.8766847781810001,0.0,0.0,-0.533198086484,0.0,0.0,0.0
710,0.0,0.0,0.46769842892700003,0.88388810354,0.0,0.0,-0.545764457099,0.0,0.0,0.0
711,0.0,0.0,0.463450699766,0.886122705322,0.0,0.0,-0.511381470834,0.0,0.0,0.0
712,0.0,0.0,0.44861720785899994,0.89372400707,0.0,0.0,-0.503702022126,0.0,0.0,0.0
713,0.0,0.0,0.444244308887,0.895905683664,0.0,0.0,-0.529532895055,0.0,0.0,0.0
714,0.0,0.0,0.4306686211,0.9025101322419999,0.0,0.0,-0.544368193697,0.0,0.0,0.0
715,0.0,0.0,0.414216731225,0.910178279005,0.0,0.0,-0.553443905807,0.0,0.0,0.0
716,0.0,0.0,0.399789183758,0.916607117881,0.0,0.0,-0.559028959414,0.0,0.0,0.0
717,0.0,0.0,0.38357011659900003,0.923511757181,0.0,0.0,-0.536514212063,0.0,0.0,0.0
718,0.0,0.0,0.36934131152500005,0.9292938155399999,0.0,0.0,-0.585557964044,0.0,0.0,0.0
719,0.0,0.0,0.352984997999,0.935628981588,0.0,0.0,-0.527263967027,0.0,0.0,0.0
720,0.0,0.0,0.339394696335,0.9406440560060001,0.0,0.0,-0.529532895055,0.0,0.0,0.0
721,0.0,0.0,0.322348304736,0.946621133524,0.0,0.0,-0.5569345643110001,0.0,0.0,0.0
722,0.0,0.0,0.308020881065,0.951379596601,0.0,0.0,-0.51190506961,0.0,0.0,0.0
723,0.0,0.0,0.301205123289,0.953559370834,0.0,0.0,-0.526914901177,0.0,0.0,0.0
724,0.0,0.0,0.286858965796,0.9579728251590001,0.0,0.0,-0.537561409614,0.0,0.0,0.0
725,0.0,0.0,0.26992829446,0.962880426559,0.0,0.0,-0.539306738866,0.0,0.0,0.0
726,0.0,0.0,0.264882987263,0.964280562419,0.0,0.0,-0.565137611796,0.0,0.0,0.0
727,0.0,0.0,0.24961954553000004,0.968343989752,0.0,0.0,-0.544891792473,0.0,0.0,0.0
728,0.0,0.0,0.23293620017900002,0.972492018808,0.0,0.0,-0.516093859815,0.0,0.0,0.0
729,0.0,0.0,0.22818094505999997,0.97361874279,0.0,0.0,-0.530754625531,0.0,0.0,0.0
730,0.0,0.0,0.210471759821,0.977599937765,0.0,0.0,-0.570897198327,0.0,0.0,0.0
731,0.0,0.0,0.20526478934,0.978706476047,0.0,0.0,-0.5712462641780001,0.0,0.0,0.0
732,0.0,0.0,0.190294990453,0.98172695624,0.0,0.0,-0.5387831400909999,0.0,0.0,0.0
733,0.0,0.0,0.18532360751,0.9826775465530001,0.0,0.0,-0.546288055874,0.0,0.0,0.0
734,0.0,0.0,0.167629126969,0.9858501284639999,0.0,0.0,-0.552571241181,0.0,0.0,0.0
735,0.0,0.0,0.16255105998400002,0.986700133221,0.0,0.0,-0.5578072289370001,0.0,0.0,0.0
736,0.0,0.0,0.145046985088,0.989424768296,0.0,0.0,-0.557283630162,0.0,0.0,0.0
737,0.0,0.0,0.129920528703,0.9915244103,0.0,0.0,-0.549604181453,0.0,0.0,0.0
738,0.0,0.0,0.112509542228,0.9936506442949999,0.0,0.0,-0.5640904142450001,0.0,0.0,0.0
739,0.0,0.0,0.09601948046980001,0.9953794549670001,0.0,0.0,-0.574387856831,0.0,0.0,0.0
740,0.0,0.0,0.07785009898239999,0.996965075661,0.0,0.0,-0.52935836213,0.0,0.0,0.0
741,0.0,0.0,0.06279051952930001,0.9980267284280001,0.0,0.0,-0.5710717312529999,0.0,0.0,0.0
742,0.0,0.0,0.0451014566941,0.998982411559,0.0,0.0,-0.571769862953,0.0,0.0,0.0
743,0.0,0.0,0.0295790159191,0.999562445182,0.0,0.0,-0.5721189288040001,0.0,0.0,0.0
744,0.0,0.0,0.010820830182100002,0.999941453103,0.0,0.0,-0.545066325398,0.0,0.0,0.0
745,0.0,0.0,-0.0046251060278900006,0.9999893041399999,0.0,0.0,-0.5265658353270001,0.0,0.0,0.0
746,0.0,0.0,-0.022600089485499998,0.999744585359,0.0,0.0,-0.571595330028,0.0,0.0,0.0
747,0.0,0.0,-0.0383006068015,0.9992662625740001,0.0,0.0,-0.588874089623,0.0,0.0,0.0
748,0.0,0.0,-0.056867038917800004,0.9983817605930001,0.0,0.0,-0.594459143229,0.0,0.0,0.0
749,0.0,0.0,-0.06244213866230001,0.998048585651,0.0,0.0,-0.596379005406,0.0,0.0,0.0
750,0.0,0.0,-0.07837209798,0.996924176785,0.0,0.0,-0.585208898194,0.0,0.0,0.0
751,0.0,0.0,-0.0968880762378,0.995295283161,0.0,0.0,-0.592015682276,0.0,0.0,0.0
752,0.0,0.0,-0.102445313747,0.9947386378799998,0.0,0.0,-0.597426202958,0.0,0.0,0.0
753,0.0,0.0,-0.120656628871,0.992694302346,0.0,0.0,-0.560774288666,0.0,0.0,0.0
754,0.0,0.0,-0.136147854798,0.990688529071,0.0,0.0,-0.5799729104379999,0.0,0.0,0.0
755,0.0,0.0,-0.141505976648,0.9899374013410001,0.0,0.0,-0.581543706765,0.0,0.0,0.0
756,0.0,0.0,-0.16013961388,0.9870943744480001,0.0,0.0,-0.588175957922,0.0,0.0,0.0
757,0.0,0.0,-0.165391874421,0.9862279289679999,0.0,0.0,-0.5712462641780001,0.0,0.0,0.0
758,0.0,0.0,-0.18069080810600002,0.983539949298,0.0,0.0,-0.554142037508,0.0,0.0,0.0
759,0.0,0.0,-0.198598241943,0.980080985581,0.0,0.0,-0.582241838465,0.0,0.0,0.0
760,0.0,0.0,-0.213030386275,0.977045574435,0.0,0.0,-0.44558255803400004,0.0,0.0,0.0
761,0.0,0.0,-0.220356962886,0.975419299024,0.0,0.0,-0.202981792007,0.0,0.0,0.0
762,0.0,0.0,-0.226566311137,0.9739957426279999,0.0,0.0,-0.235444916094,0.0,0.0,0.0
763,0.0,0.0,-0.236583786987,0.971611090784,0.0,0.0,-0.31520646291,0.0,0.0,0.0
764,0.0,0.0,-0.245053577276,0.9695095379950001,0.0,0.0,-0.317998989713,0.0,0.0,0.0
765,0.0,0.0,-0.252407137104,0.967621122723,0.0,0.0,-0.108908545324,0.0,0.0,0.0
766,0.0,0.0,-0.25198490872699997,0.9677311639980001,0.0,0.0,-0.0176278254451,0.0,0.0,0.0
767,0.0,0.0,-0.252576015004,0.967577054629,0.0,0.0,-0.0329867228627,0.0,0.0,0.0
768,0.0,0.0,-0.254179970591,0.967156937911,0.0,0.0,-0.0357792496659,0.0,0.0,0.0
769,0.0,0.0,-0.254433162972,0.967090360608,0.0,0.0,-0.014137166941200001,0.0,0.0,0.0
770,0.0,0.0,-0.2549394954,0.9669570071539999,0.0,0.0,-0.0204203522483,0.0,0.0,0.0
771,0.0,0.0,-0.256036309038,0.966667165292,0.0,0.0,-0.0582939970166,0.0,0.0,0.0
772,0.0,0.0,-0.25654241966200003,0.966532972492,0.0,0.0,-0.0502654824574,0.0,0.0,0.0
773,0.0,0.0,-0.257217124397,0.9663536365719999,0.0,0.0,-0.009075712110370001,0.0,0.0,0.0
774,0.0,0.0,-0.257638751216,0.9662413124429999,0.0,0.0,-0.0274016692563,0.0,0.0,0.0
775,0.0,0.0,-0.257891703768,0.966173829664,0.0,0.0,-0.030892327760299997,0.0,0.0,0.0
776,0.0,0.0,-0.259240485101,0.965812803231,0.0,0.0,-0.0244346095279,0.0,0.0,0.0
777,0.0,0.0,-0.259493325415,0.9657449011329999,0.0,0.0,-0.0230383461263,0.0,0.0,0.0
778,0.0,0.0,-0.259914686406,0.965631583882,0.0,0.0,-0.013962634016,0.0,0.0,0.0
779,0.0,0.0,-0.260083216952,0.965586205504,0.0,0.0,-0.0178023583703,0.0,0.0,0.0
780,0.0,0.0,-0.26126270865,0.965267733362,0.0,0.0,-0.0457276264023,0.0,0.0,0.0
781,0.0,0.0,-0.261683861269,0.965153644117,0.0,0.0,-0.0364773813667,0.0,0.0,0.0
782,0.0,0.0,-0.262357601798,0.9649707191299999,0.0,0.0,-0.0191986217719,0.0,0.0,0.0
783,0.0,0.0,-0.263283786172,0.9647184293559999,0.0,0.0,-0.057770398241,0.0,0.0,0.0
784,0.0,0.0,-0.263873049965,0.964557418458,0.0,0.0,-0.0687659725286,0.0,0.0,0.0
785,0.0,0.0,-0.265051281935,0.9642343169299998,0.0,0.0,-0.028972465583099998,0.0,0.0,0.0
786,0.0,0.0,-0.265387847052,0.964141737836,0.0,0.0,-0.036826447217099996,0.0,0.0,0.0
787,0.0,0.0,-0.265724379832,0.9640490412639999,0.0,0.0,-0.011344640138,0.0,0.0,0.0
788,0.0,0.0,-0.26698608906,0.963700383028,0.0,0.0,-0.0483456202802,0.0,0.0,0.0
789,0.0,0.0,-0.267995127166,0.963420267493,0.0,0.0,-0.0319395253115,0.0,0.0,0.0
790,0.0,0.0,-0.268499536079,0.963279813515,0.0,0.0,-0.009075712110370001,0.0,0.0,0.0
791,0.0,0.0,-0.26934005395300004,0.963045136708,0.0,0.0,-0.047298422729,0.0,0.0,0.0
792,0.0,0.0,-0.270516434242,0.962715357104,0.0,0.0,-0.014137166941200001,0.0,0.0,0.0
793,0.0,0.0,-0.271440449865,0.962455236454,0.0,0.0,-0.0518362787842,0.0,0.0,0.0
794,0.0,0.0,-0.272280247041,0.962217993529,0.0,0.0,-0.030892327760299997,0.0,0.0,0.0
795,0.0,0.0,-0.273707426021,0.961812998946,0.0,0.0,-0.0237364778271,0.0,0.0,0.0
796,0.0,0.0,-0.273707426021,0.961812998946,0.0,0.0,-0.00244346095279,0.0,0.0,0.0
797,0.0,0.0,-0.27412707004299997,0.961693479997,0.0,0.0,-0.028448866807499997,0.0,0.0,0.0
798,0.0,0.0,-0.274966201438,0.961453892845,0.0,0.0,-0.039793506945500004,0.0,0.0,0.0
799,0.0,0.0,-0.2753017954,0.9613578529610001,0.0,0.0,-0.048171087355,0.0,0.0,0.0
800,0.0,0.0,-0.275721240675,0.961237638381,0.0,0.0,-0.00261799387799,0.0,0.0,0.0
801,0.0,0.0,-0.276308375854,0.961069030524,0.0,0.0,-0.0204203522483,0.0,0.0,0.0
802,0.0,0.0,-0.276476109834,0.961020790978,0.0,0.0,-0.029496064358700003,0.0,0.0,0.0
803,0.0,0.0,-0.278069161877,0.960561055432,0.0,0.0,-0.0518362787842,0.0,0.0,0.0
804,0.0,0.0,-0.278404443991,0.9604639324650001,0.0,0.0,-0.041189770347099995,0.0,0.0,0.0
805,0.0,0.0,-0.27915870465500003,0.960244977917,0.0,0.0,-0.0230383461263,0.0,0.0,0.0
806,0.0,0.0,-0.279493876371,0.960147474647,0.0,0.0,-0.0331612557879,0.0,0.0,0.0
807,0.0,0.0,-0.280164117595,0.9599521171459999,0.0,0.0,-0.0275762021815,0.0,0.0,0.0
808,0.0,0.0,-0.28058294904,0.959829781111,0.0,0.0,-0.041015237421900004,0.0,0.0,0.0
809,0.0,0.0,-0.281504190071,0.959559998631,0.0,0.0,-0.027227136331099997,0.0,0.0,0.0
810,0.0,0.0,-0.2820065759,0.9594124718539999,0.0,0.0,-0.014835298642,0.0,0.0,0.0
811,0.0,0.0,-0.282592594976,0.959240024845,0.0,0.0,-0.028448866807499997,0.0,0.0,0.0
812,0.0,0.0,-0.2831785086,0.9590672198899999,0.0,0.0,-0.0204203522483,0.0,0.0,0.0
813,0.0,0.0,-0.28376431655400003,0.958894057052,0.0,0.0,-0.0317649923863,0.0,0.0,0.0
814,0.0,0.0,-0.284684657889,0.95862122111,0.0,0.0,-0.039618974020300006,0.0,0.0,0.0
815,0.0,0.0,-0.285771995738,0.958297639803,0.0,0.0,-0.0244346095279,0.0,0.0,0.0
816,0.0,0.0,-0.286190104747,0.958172857028,0.0,0.0,-0.011344640138,0.0,0.0,0.0
817,0.0,0.0,-0.286691763629,0.958022876902,0.0,0.0,-0.0242600766027,0.0,0.0,0.0
818,0.0,0.0,-0.287444104536,0.957797414262,0.0,0.0,-0.022863813201099998,0.0,0.0,0.0
819,0.0,0.0,-0.288363391474,0.9575210464830001,0.0,0.0,-0.0193731546971,0.0,0.0,0.0
820,0.0,0.0,-0.288530506031,0.957470702993,0.0,0.0,-0.0151843644924,0.0,0.0,0.0
821,0.0,0.0,-0.28911533773000003,0.9572942711040001,0.0,0.0,-0.0188495559215,0.0,0.0,0.0
822,0.0,0.0,-0.289867105645,0.957066905219,0.0,0.0,-0.0237364778271,0.0,0.0,0.0
823,0.0,0.0,-0.290201167351,0.956965664205,0.0,0.0,-0.0357792496659,0.0,0.0,0.0
824,0.0,0.0,-0.290952676844,0.9567374456129999,0.0,0.0,-0.0237364778271,0.0,0.0,0.0
825,0.0,0.0,-0.29120314014800003,0.956661241594,0.0,0.0,-0.0202458193231,0.0,0.0,0.0
826,0.0,0.0,-0.291620534626,0.956534089191,0.0,0.0,-0.0186750229963,0.0,0.0,0.0
827,0.0,0.0,-0.291704006862,0.956508636856,0.0,0.0,-0.00820304748437,0.0,0.0,0.0
828,0.0,0.0,-0.292371704723,0.956304755963,0.0,0.0,-0.0310668606855,0.0,0.0,0.0
829,0.0,0.0,-0.292538606935,0.9562537129090001,0.0,0.0,-0.022165681500300002,0.0,0.0,0.0
830,0.0,0.0,-0.293206126622,0.956049249417,0.0,0.0,-0.0387463093943,0.0,0.0,0.0
831,0.0,0.0,-0.293956915437,0.955818671018,0.0,0.0,-0.017278759594700002,0.0,0.0,0.0
832,0.0,0.0,-0.29462413106199997,0.955613217466,0.0,0.0,-0.021816615649900003,0.0,0.0,0.0
833,0.0,0.0,-0.295124448563,0.955458821645,0.0,0.0,-0.0253072741539,0.0,0.0,0.0
834,0.0,0.0,-0.29612484069899997,0.955149244213,0.0,0.0,-0.0207694180987,0.0,0.0,0.0
835,0.0,0.0,-0.296708252883,0.954968173643,0.0,0.0,-0.0237364778271,0.0,0.0,0.0
836,0.0,0.0,-0.297374874078,0.954760799503,0.0,0.0,-0.037873644768300005,0.0,0.0,0.0
837,0.0,0.0,-0.298707681332,0.954344655307,0.0,0.0,-0.036302848441499995,0.0,0.0,0.0
838,0.0,0.0,-0.299873410064,0.953979002881,0.0,0.0,-0.0404916386463,0.0,0.0,0.0
839,0.0,0.0,-0.300289633369,0.953848067614,0.0,0.0,-0.014835298642,0.0,0.0,0.0
840,0.0,0.0,-0.30095547171,0.9536381934720001,0.0,0.0,-0.0305432619099,0.0,0.0,0.0
841,0.0,0.0,-0.301621163369,0.9534278545370001,0.0,0.0,-0.0136135681656,0.0,0.0,0.0
842,0.0,0.0,-0.301953954091,0.953322510806,0.0,0.0,-0.014835298642,0.0,0.0,0.0
843,0.0,0.0,-0.302453071177,0.953164277413,0.0,0.0,-0.0305432619099,0.0,0.0,0.0
844,0.0,0.0,-0.303367903708,0.9528735041959999,0.0,0.0,-0.03473205211469999,0.0,0.0,0.0
845,0.0,0.0,-0.303700500819,0.952767550771,0.0,0.0,-0.04485496177630001,0.0,0.0,0.0
846,0.0,0.0,-0.30444870895799997,0.9525287311220001,0.0,0.0,-0.0287979326579,0.0,0.0,0.0
847,0.0,0.0,-0.30511362521499996,0.952315953719,0.0,0.0,-0.014311699866400001,0.0,0.0,0.0
848,0.0,0.0,-0.305279831056,0.952262686841,0.0,0.0,-0.022165681500300002,0.0,0.0,0.0
849,0.0,0.0,-0.305861478234,0.9520760243449999,0.0,0.0,-0.00628318530718,0.0,0.0,0.0
850,0.0,0.0,-0.305861478234,0.9520760243449999,0.0,0.0,-0.00872664625997,0.0,0.0,0.0
851,0.0,0.0,-0.306359942125,0.9519157451479999,0.0,0.0,-0.0314159265359,0.0,0.0,0.0
852,0.0,0.0,-0.30719052856400003,0.951648033235,0.0,0.0,-0.020943951023900002,0.0,0.0,0.0
853,0.0,0.0,-0.30743965890700004,0.951567578331,0.0,0.0,-0.0239110107523,0.0,0.0,0.0
854,0.0,0.0,-0.30793785636,0.951406472871,0.0,0.0,-0.012042771838799999,0.0,0.0,0.0
855,0.0,0.0,-0.30868499420400003,0.951164325631,0.0,0.0,-0.0274016692563,0.0,0.0,0.0
856,0.0,0.0,-0.30893399786,0.951083479494,0.0,0.0,-0.0267035375555,0.0,0.0,0.0
857,0.0,0.0,-0.30951492401999997,0.9508945850139999,0.0,0.0,-0.015358897417600001,0.0,0.0,0.0
858,0.0,0.0,-0.31001276880999995,0.950732393039,0.0,0.0,-0.021118483949099997,0.0,0.0,0.0
859,0.0,0.0,-0.31092526341800003,0.950434364156,0.0,0.0,-0.029496064358700003,0.0,0.0,0.0
860,0.0,0.0,-0.31175455536999996,0.950162668813,0.0,0.0,-0.0232128790515,0.0,0.0,0.0
861,0.0,0.0,-0.31208620571,0.9500537880589999,0.0,0.0,-0.0274016692563,0.0,0.0,0.0
862,0.0,0.0,-0.313661024833,0.9495350238410001,0.0,0.0,-0.0476474885794,0.0,0.0,0.0
863,0.0,0.0,-0.314323848843,0.9493158157580001,0.0,0.0,-0.00366519142919,0.0,0.0,0.0
864,0.0,0.0,-0.314323848843,0.9493158157580001,0.0,0.0,0.000872664625997,0.0,0.0,0.0
865,0.0,0.0,-0.314820866332,0.9491511060529999,0.0,0.0,-0.0373500459927,0.0,0.0,0.0
866,0.0,0.0,-0.315897441286,0.948793342403,0.0,0.0,-0.029670597283900004,0.0,0.0,0.0
867,0.0,0.0,-0.31655974696,0.948572573188,0.0,0.0,-0.00942477796077,0.0,0.0,0.0
868,0.0,0.0,-0.316642524327,0.948544944527,0.0,0.0,-0.0129154364648,0.0,0.0,0.0
869,0.0,0.0,-0.317056374982,0.9484066928720001,0.0,0.0,-0.0202458193231,0.0,0.0,0.0
870,0.0,0.0,-0.317387412048,0.94829596154,0.0,0.0,-0.0287979326579,0.0,0.0,0.0
871,0.0,0.0,-0.318297564451,0.947990854631,0.0,0.0,-0.055152404363,0.0,0.0,0.0
872,0.0,0.0,-0.319455515932,0.947601273395,0.0,0.0,-0.021118483949099997,0.0,0.0,0.0
873,0.0,0.0,-0.319703586415,0.947517607664,0.0,0.0,-0.036302848441499995,0.0,0.0,0.0
874,0.0,0.0,-0.32036500053000005,0.947294181569,0.0,0.0,-0.0342084533391,0.0,0.0,0.0
875,0.0,0.0,-0.320695649055,0.947182295378,0.0,0.0,-0.032637657012299995,0.0,0.0,0.0
876,0.0,0.0,-0.321274189923,0.946986216842,0.0,0.0,-0.0301941960595,0.0,0.0,0.0
877,0.0,0.0,-0.321522099322,0.946902075004,0.0,0.0,-0.0322885911619,0.0,0.0,0.0
878,0.0,0.0,-0.322761315426,0.9464803924349999,0.0,0.0,-0.0267035375555,0.0,0.0,0.0
879,0.0,0.0,-0.323256847134,0.9463112652719999,0.0,0.0,-0.0169296937443,0.0,0.0,0.0
880,0.0,0.0,-0.323669722533,0.9461701277869999,0.0,0.0,-0.0239110107523,0.0,0.0,0.0
881,0.0,0.0,-0.324412742909,0.9459156263840001,0.0,0.0,-0.023387411976700002,0.0,0.0,0.0
882,0.0,0.0,-0.325155563171,0.9456605414939999,0.0,0.0,-0.012217304764,0.0,0.0,0.0
883,0.0,0.0,-0.325485641156,0.9455469831799999,0.0,0.0,-0.0176278254451,0.0,0.0,0.0
884,0.0,0.0,-0.326228171556,0.945291055751,0.0,0.0,-0.0162315620435,0.0,0.0,0.0
885,0.0,0.0,-0.32672308005399997,0.9451201135089999,0.0,0.0,-0.015533430342700001,0.0,0.0,0.0
886,0.0,0.0,-0.327052969298,0.945006008062,0.0,0.0,-0.0242600766027,0.0,0.0,0.0
887,0.0,0.0,-0.327877517976,0.944720240709,0.0,0.0,-0.029496064358700003,0.0,0.0,0.0
888,0.0,0.0,-0.328289698719,0.944577087227,0.0,0.0,-0.026529004630299998,0.0,0.0,0.0
889,0.0,0.0,-0.328784233101,0.94440506567,0.0,0.0,-0.0144862327916,0.0,0.0,0.0
890,0.0,0.0,-0.329525865624,0.9441465478859999,0.0,0.0,-0.0151843644924,0.0,0.0,0.0
891,0.0,0.0,-0.329608256698,0.9441177877339999,0.0,0.0,-0.004363323129989999,0.0,0.0,0.0
892,0.0,0.0,-0.330020174407,0.943973879132,0.0,0.0,-0.0303687289847,0.0,0.0,0.0
893,0.0,0.0,-0.330761467895,0.943714390775,0.0,0.0,-0.0179768912955,0.0,0.0,0.0
894,0.0,0.0,-0.330843821252,0.943685522798,0.0,0.0,-0.0160570291183,0.0,0.0,0.0
895,0.0,0.0,-0.331584888012,0.943425387639,0.0,0.0,-0.020943951023900002,0.0,0.0,0.0
896,0.0,0.0,-0.33191418538899997,0.943309585204,0.0,0.0,-0.0242600766027,0.0,0.0,0.0
897,0.0,0.0,-0.332243442324,0.943193667829,0.0,0.0,-0.0333357887131,0.0,0.0,0.0
898,0.0,0.0,-0.333148690033,0.942874302508,0.0,0.0,-0.0226892802759,0.0,0.0,0.0
899,0.0,0.0,-0.333313247568,0.9428161427320001,0.0,0.0,-0.0181514242207,0.0,0.0,0.0
900,0.0,0.0,-0.333724596974,0.942670617647,0.0,0.0,-0.017453292519900004,0.0,0.0,0.0
901,0.0,0.0,-0.334300379384,0.942466581022,0.0,0.0,-0.028448866807499997,0.0,0.0,0.0
902,0.0,0.0,-0.334629341909,0.94234983076,0.0,0.0,-0.0375245789179,0.0,0.0,0.0
903,0.0,0.0,-0.335204928193,0.942145241518,0.0,0.0,-0.005410520681180001,0.0,0.0,0.0
904,0.0,0.0,-0.33578038939300003,0.9419403007089999,0.0,0.0,-0.0198967534727,0.0,0.0,0.0
905,0.0,0.0,-0.336602259413,0.941646918414,0.0,0.0,-0.030717794835099996,0.0,0.0,0.0
906,0.0,0.0,-0.337177415944,0.9414411241159999,0.0,0.0,-0.0116937059884,0.0,0.0,0.0
907,0.0,0.0,-0.337506020341,0.941323369642,0.0,0.0,-0.0169296937443,0.0,0.0,0.0
908,0.0,0.0,-0.33808097905900003,0.941117023328,0.0,0.0,-0.027925268031900003,0.0,0.0,0.0
909,0.0,0.0,-0.338737920245,0.9408807689540001,0.0,0.0,-0.00453785605519,0.0,0.0,0.0
910,0.0,0.0,-0.339230517808,0.9407032772280001,0.0,0.0,-0.0244346095279,0.0,0.0,0.0
911,0.0,0.0,-0.339969239731,0.940436556093,0.0,0.0,-0.020943951023900002,0.0,0.0,0.0
912,0.0,0.0,-0.340707751944,0.94016925485,0.0,0.0,-0.0216420827247,0.0,0.0,0.0
913,0.0,0.0,-0.34111794572400006,0.940020503556,0.0,0.0,-0.014311699866400001,0.0,0.0,0.0
914,0.0,0.0,-0.34128200505500006,0.939960952926,0.0,0.0,-0.026354471705099997,0.0,0.0,0.0
915,0.0,0.0,-0.342102145674,0.93966277032,0.0,0.0,-0.017278759594700002,0.0,0.0,0.0
916,0.0,0.0,-0.342348137086,0.939573175987,0.0,0.0,-0.020071286397900002,0.0,0.0,0.0
917,0.0,0.0,-0.343003999424,0.939333942951,0.0,0.0,-0.0171042266695,0.0,0.0,0.0
918,0.0,0.0,-0.343577741844,0.9391242384849999,0.0,0.0,-0.011344640138,0.0,0.0,0.0
919,0.0,0.0,-0.34423329046499995,0.9388841471320001,0.0,0.0,-0.0286233997327,0.0,0.0,0.0
920,0.0,0.0,-0.345134395808,0.93855327437,0.0,0.0,-0.0186750229963,0.0,0.0,0.0
921,0.0,0.0,-0.34521629871799997,0.938523152138,0.0,0.0,-0.011868238913600001,0.0,0.0,0.0
922,0.0,0.0,-0.34538009664999997,0.938462886234,0.0,0.0,-0.00750491578358,0.0,0.0,0.0
923,0.0,0.0,-0.34611705707699997,0.938191335922,0.0,0.0,-0.0310668606855,0.0,0.0,0.0
924,0.0,0.0,-0.346362663131,0.938100690539,0.0,0.0,-0.030892327760299997,0.0,0.0,0.0
925,0.0,0.0,-0.346690100938,0.937979730011,0.0,0.0,-0.0183259571459,0.0,0.0,0.0
926,0.0,0.0,-0.34701749650200003,0.937858655194,0.0,0.0,-0.009250245035569999,0.0,0.0,0.0
927,0.0,0.0,-0.34718117843,0.937798074931,0.0,0.0,-0.022863813201099998,0.0,0.0,0.0
928,0.0,0.0,-0.34783580033600003,0.937555468228,0.0,0.0,-0.0193731546971,0.0,0.0,0.0
929,0.0,0.0,-0.34808123986100004,0.9374643729000001,0.0,0.0,-0.0125663706144,0.0,0.0,0.0
930,0.0,0.0,-0.348653839278,0.9372515672730001,0.0,0.0,-0.022165681500300002,0.0,0.0,0.0
931,0.0,0.0,-0.349144535236,0.937068884082,0.0,0.0,-0.028448866807499997,0.0,0.0,0.0
932,0.0,0.0,-0.349635135474,0.936885943988,0.0,0.0,-0.0158824961931,0.0,0.0,0.0
933,0.0,0.0,-0.34979864759199997,0.9368249068760001,0.0,0.0,-0.00837758040957,0.0,0.0,0.0
934,0.0,0.0,-0.350697773643,0.936488692704,0.0,0.0,-0.0185004900711,0.0,0.0,0.0
935,0.0,0.0,-0.35094293378799996,0.9363968481489999,0.0,0.0,-0.013788101090799998,0.0,0.0,0.0
936,0.0,0.0,-0.351596576537,0.936151615588,0.0,0.0,-0.0109955742876,0.0,0.0,0.0
937,0.0,0.0,-0.351759960461,0.936090236151,0.0,0.0,-0.013962634016,0.0,0.0,0.0
938,0.0,0.0,-0.352168373381,0.935936662809,0.0,0.0,-0.0157079632679,0.0,0.0,0.0
939,0.0,0.0,-0.352658380374,0.935752139592,0.0,0.0,-0.011868238913600001,0.0,0.0,0.0
940,0.0,0.0,-0.353066645686,0.9355981742730001,0.0,0.0,-0.0205948851735,0.0,0.0,0.0
941,0.0,0.0,-0.353311572613,0.9355057095799999,0.0,0.0,-0.0176278254451,0.0,0.0,0.0
942,0.0,0.0,-0.353801353804,0.935320587845,0.0,0.0,-0.006981317007979999,0.0,0.0,0.0
943,0.0,0.0,-0.35420943070699995,0.9351661238510001,0.0,0.0,-0.0169296937443,0.0,0.0,0.0
944,0.0,0.0,-0.35437264259,0.9351042884,0.0,0.0,-0.013788101090799998,0.0,0.0,0.0
945,0.0,0.0,-0.35486221345200003,0.934918611144,0.0,0.0,-0.0204203522483,0.0,0.0,0.0
946,0.0,0.0,-0.355188539986,0.934794683908,0.0,0.0,-0.0158824961931,0.0,0.0,0.0
947,0.0,0.0,-0.35543325648699997,0.934701663732,0.0,0.0,-0.0237364778271,0.0,0.0,0.0
948,0.0,0.0,-0.355759507257,0.9345775371770001,0.0,0.0,-0.008901179185170001,0.0,0.0,0.0
949,0.0,0.0,-0.35592261638899997,0.934515431196,0.0,0.0,-0.011868238913600001,0.0,0.0,0.0
950,0.0,0.0,-0.356248802122,0.9343911338330001,0.0,0.0,-0.0109955742876,0.0,0.0,0.0
951,0.0,0.0,-0.35641187871299995,0.934328942457,0.0,0.0,-0.014660765716799999,0.0,0.0,0.0
952,0.0,0.0,-0.357064076459,0.9340798923549999,0.0,0.0,-0.00733038285838,0.0,0.0,0.0
953,0.0,0.0,-0.357064076459,0.9340798923549999,0.0,0.0,-0.00558505360638,0.0,0.0,0.0
954,0.0,0.0,-0.35730860576300005,0.933986381189,0.0,0.0,-0.0176278254451,0.0,0.0,0.0
955,0.0,0.0,-0.357797590888,0.933799166821,0.0,0.0,-0.010821041362399999,0.0,0.0,0.0
956,0.0,0.0,-0.357960564137,0.933736705138,0.0,0.0,0.00418879020479,0.0,0.0,0.0
957,0.0,0.0,-0.358449418442,0.933549149439,0.0,0.0,-0.024609142453099996,0.0,0.0,0.0
958,0.0,0.0,-0.35885672196699997,0.933392657513,0.0,0.0,-0.0151843644924,0.0,0.0,0.0
959,0.0,0.0,-0.35934539600599996,0.933204632634,0.0,0.0,-0.0129154364648,0.0,0.0,0.0
960,0.0,0.0,-0.359671123975,0.933079140576,0.0,0.0,-0.00366519142919,0.0,0.0,0.0
961,0.0,0.0,-0.36032244840000005,0.932827815397,0.0,0.0,-0.0237364778271,0.0,0.0,0.0
962,0.0,0.0,-0.360729437005,0.932670506276,0.0,0.0,-0.0136135681656,0.0,0.0,0.0
963,0.0,0.0,-0.360973597208,0.9325760355700001,0.0,0.0,-0.0212930168743,0.0,0.0,0.0
964,0.0,0.0,-0.361461843375,0.9323869024089999,0.0,0.0,-0.012391837689200002,0.0,0.0,0.0
965,0.0,0.0,-0.361949990445,0.9321975136299999,0.0,0.0,-0.00750491578358,0.0,0.0,0.0
966,0.0,0.0,-0.362194026776,0.932102723399,0.0,0.0,-0.021816615649900003,0.0,0.0,0.0
967,0.0,0.0,-0.362519369933,0.931976237049,0.0,0.0,-0.0101229096616,0.0,0.0,0.0
968,0.0,0.0,-0.36292598675800003,0.931817969421,0.0,0.0,-0.00733038285838,0.0,0.0,0.0
969,0.0,0.0,-0.363007301834,0.931786294606,0.0,0.0,-0.00418879020479,0.0,0.0,0.0
970,0.0,0.0,-0.36292598675800003,0.931817969421,0.0,0.0,0.007853981633970001,0.0,0.0,0.0
971,0.0,0.0,-0.363413835735,0.931627814096,0.0,0.0,-0.0249582083035,0.0,0.0,0.0
972,0.0,0.0,-0.36373901304300005,0.931500901981,0.0,0.0,-0.0314159265359,0.0,0.0,0.0
973,0.0,0.0,-0.363901585079,0.9314374033589999,0.0,0.0,0.00872664625997,0.0,0.0,0.0
974,0.0,0.0,-0.363982866941,0.931405643409,0.0,0.0,-0.0125663706144,0.0,0.0,0.0
975,0.0,0.0,-0.36438923465800005,0.931246737264,0.0,0.0,-0.0275762021815,0.0,0.0,0.0
976,0.0,0.0,-0.364470499879,0.931214934759,0.0,0.0,-0.0102974425868,0.0,0.0,0.0
977,0.0,0.0,-0.364795533001,0.931087653824,0.0,0.0,-0.009599310885969999,0.0,0.0,0.0
978,0.0,0.0,-0.364795533001,0.931087653824,0.0,0.0,0.006632251157579999,0.0,0.0,0.0
979,0.0,0.0,-0.365282999329,0.930896519706,0.0,0.0,-0.013788101090799998,0.0,0.0,0.0
980,0.0,0.0,-0.365689144775,0.930737046321,0.0,0.0,-0.024609142453099996,0.0,0.0,0.0
981,0.0,0.0,-0.366176427403,0.930545444358,0.0,0.0,-0.013788101090799998,0.0,0.0,0.0
982,0.0,0.0,-0.36633883264300005,0.9304815203419999,0.0,0.0,-0.00994837673637,0.0,0.0,0.0
983,0.0,0.0,-0.366988341962,0.930225540858,0.0,0.0,-0.0253072741539,0.0,0.0,0.0
984,0.0,0.0,-0.367150691357,0.930161475141,0.0,0.0,0.00314159265359,0.0,0.0,0.0
985,0.0,0.0,-0.36755651590099997,0.930001186891,0.0,0.0,-0.0185004900711,0.0,0.0,0.0
986,0.0,0.0,-0.367881125157,0.9298728288070001,0.0,0.0,-0.00837758040957,0.0,0.0,0.0
987,0.0,0.0,-0.36820568958800004,0.9297443574200002,0.0,0.0,0.0183259571459,0.0,0.0,0.0
988,0.0,0.0,-0.36844908346999994,0.9296479295360001,0.0,0.0,-0.00488692190558,0.0,0.0,0.0
989,0.0,0.0,-0.368854683815,0.929487074804,0.0,0.0,-0.0375245789179,0.0,0.0,0.0
990,0.0,0.0,-0.369179113533,0.929358263605,0.0,0.0,0.00733038285838,0.0,0.0,0.0
991,0.0,0.0,-0.36861133203,0.9295836088799999,0.0,0.0,-0.00820304748437,0.0,0.0,0.0
992,0.0,0.0,-0.369260213935,0.9293260431110001,0.0,0.0,-0.028972465583099998,0.0,0.0,0.0
993,0.0,0.0,-0.369827837979,0.929100301505,0.0,0.0,-0.0050614548307799994,0.0,0.0,0.0
994,0.0,0.0,-0.369827837979,0.929100301505,0.0,0.0,0.0019198621771900001,0.0,0.0,0.0
995,0.0,0.0,-0.36974675727399997,0.9291325715340001,0.0,0.0,-0.0102974425868,0.0,0.0,0.0
996,0.0,0.0,-0.370152132628,0.928971150634,0.0,0.0,-0.0207694180987,0.0,0.0,0.0
997,0.0,0.0,-0.370395324019,0.9288742131990001,0.0,0.0,-0.0183259571459,0.0,0.0,0.0
998,0.0,0.0,-0.370233199244,0.9289388452299999,0.0,0.0,0.00453785605519,0.0,0.0,0.0
999,0.0,0.0,-0.37063849002300003,0.9287772120990001,0.0,0.0,0.0012217304764,0.0,0.0,0.0
1000,0.0,0.0,-0.370719539713,0.928744864252,0.0,0.0,-0.012042771838799999,0.0,0.0,0.0
1001,0.0,0.0,-0.37096267184299997,0.9286477782770001,0.0,0.0,0.0205948851735,0.0,0.0,0.0
1002,0.0,0.0,-0.37096267184299997,0.9286477782770001,0.0,0.0,-0.010471975512,0.0,0.0,0.0
1003,0.0,0.0,-0.37136783554999997,0.9284858268809999,0.0,0.0,-0.0010471975512,0.0,0.0,0.0
1004,0.0,0.0,-0.371691915613,0.928356138488,0.0,0.0,-0.010646508437200001,0.0,0.0,0.0
1005,0.0,0.0,-0.371691915613,0.928356138488,0.0,0.0,-0.00279252680319,0.0,0.0,0.0
1006,0.0,0.0,-0.37201595038699997,0.928226336977,0.0,0.0,-0.00157079632679,0.0,0.0,0.0
1007,0.0,0.0,-0.37201595038699997,0.928226336977,0.0,0.0,-0.0115191730632,0.0,0.0,0.0
1008,0.0,0.0,-0.372177950778,0.9281613938079999,0.0,0.0,-0.0186750229963,0.0,0.0,0.0
1009,0.0,0.0,-0.372096951999,0.9281938689270001,0.0,0.0,-0.0109955742876,0.0,0.0,0.0
1010,0.0,0.0,-0.372177950778,0.9281613938079999,0.0,0.0,-0.0169296937443,0.0,0.0,0.0
1011,0.0,0.0,-0.37314971487,0.927771141119,0.0,0.0,-0.046425758103,0.0,0.0,0.0
1012,0.0,0.0,-0.37363544353,0.9275756332170001,0.0,0.0,0.00593411945678,0.0,0.0,0.0
1013,0.0,0.0,-0.37395920573799996,0.927445153335,0.0,0.0,-0.030717794835099996,0.0,0.0,0.0
1014,0.0,0.0,-0.37387826945600006,0.9274777839,0.0,0.0,0.0101229096616,0.0,0.0,0.0
1015,0.0,0.0,-0.37420199749300004,0.927347219262,0.0,0.0,-0.014835298642,0.0,0.0,0.0
1016,0.0,0.0,-0.374363844416,0.927281894568,0.0,0.0,0.0478220215046,0.0,0.0,0.0
1017,0.0,0.0,-0.373797330327,0.927510407403,0.0,0.0,0.00157079632679,0.0,0.0,0.0
1018,0.0,0.0,-0.374121069757,0.9273798710150001,0.0,0.0,-0.0331612557879,0.0,0.0,0.0
1019,0.0,0.0,-0.374363844416,0.927281894568,0.0,0.0,0.0,0.0,0.0,0.0
1020,0.0,0.0,-0.37395920573799996,0.927445153335,0.0,0.0,0.04084070449669999,0.0,0.0,0.0
1021,0.0,0.0,-0.37395920573799996,0.927445153335,0.0,0.0,-0.00645771823238,0.0,0.0,0.0
1022,0.0,0.0,-0.374525679934,0.927216541629,0.0,0.0,-0.0286233997327,0.0,0.0,0.0
1023,0.0,0.0,-0.374363844416,0.927281894568,0.0,0.0,0.00855211333477,0.0,0.0,0.0
1024,0.0,0.0,-0.374363844416,0.927281894568,0.0,0.0,0.0,0.0,0.0,0.0
1025,0.0,0.0,-0.374444763601,0.927249221629,0.0,0.0,0.0,0.0,0.0,0.0
1026,0.0,0.0,-0.37420199749300004,0.927347219262,0.0,0.0,0.00628318530718,0.0,0.0,0.0
1027,0.0,0.0,-0.37420199749300004,0.927347219262,0.0,0.0,0.0,0.0,0.0,0.0
1028,0.0,0.0,-0.374363844416,0.927281894568,0.0,0.0,-0.014137166941200001,0.0,0.0,0.0
1029,0.0,0.0,-0.374444763601,0.927249221629,0.0,0.0,0.0,0.0,0.0,0.0
1030,0.0,0.0,-0.374444763601,0.927249221629,0.0,0.0,0.0,0.0,0.0,0.0
1031,0.0,0.0,-0.374444763601,0.927249221629,0.0,0.0,0.0,0.0,0.0,0.0
1032,0.0,0.0,-0.374444763601,0.927249221629,0.0,0.0,-0.009599310885969999,0.0,0.0,0.0
1033,0.0,0.0,-0.374525679934,0.927216541629,0.0,0.0,0.0,0.0,0.0,0.0
1034,0.0,0.0,-0.374525679934,0.927216541629,0.0,0.0,0.0,0.0,0.0,0.0
1035,0.0,0.0,-0.374525679934,0.927216541629,0.0,0.0,0.0,0.0,0.0,0.0
1036,0.0,0.0,-0.374525679934,0.927216541629,0.0,0.0,0.0,0.0,0.0,0.0
1037,0.0,0.0,-0.374525679934,0.927216541629,0.0,0.0,0.0,0.0,0.0,0.0
1038,0.0,0.0,-0.374525679934,0.927216541629,0.0,0.0,0.0,0.0,0.0,0.0
1039,0.0,0.0,-0.374525679934,0.927216541629,0.0,0.0,0.0,0.0,0.0,0.0
1040,0.0,0.0,-0.374525679934,0.927216541629,0.0,0.0,0.0,0.0,0.0,0.0
1041,0.0,0.0,-0.374525679934,0.927216541629,0.0,0.0,0.0,0.0,0.0,0.0
1042,0.0,0.0,-0.374525679934,0.927216541629,0.0,0.0,0.0,0.0,0.0,0.0
1043,0.0,0.0,-0.374525679934,0.927216541629,0.0,0.0,0.0,0.0,0.0,0.0
1044,0.0,0.0,-0.374525679934,0.927216541629,0.0,0.0,0.0,0.0,0.0,0.0
1045,0.0,0.0,-0.374525679934,0.927216541629,0.0,0.0,0.0,0.0,0.0,0.0
1046,0.0,0.0,-0.374525679934,0.927216541629,0.0,0.0,0.0,0.0,0.0,0.0
1047,0.0,0.0,-0.374525679934,0.927216541629,0.0,0.0,0.0,0.0,0.0,0.0
1048,0.0,0.0,-0.374525679934,0.927216541629,0.0,0.0,0.0,0.0,0.0,0.0
1049,0.0,0.0,-0.374525679934,0.927216541629,0.0,0.0,0.0,0.0,0.0,0.0
1050,0.0,0.0,-0.374525679934,0.927216541629,0.0,0.0,0.0,0.0,0.0,0.0
1051,0.0,0.0,-0.374525679934,0.927216541629,0.0,0.0,0.0,0.0,0.0,0.0
1052,0.0,0.0,-0.374525679934,0.927216541629,0.0,0.0,0.0,0.0,0.0,0.0
1053,0.0,0.0,-0.374525679934,0.927216541629,0.0,0.0,0.0,0.0,0.0,0.0
1054,0.0,0.0,-0.374525679934,0.927216541629,0.0,0.0,0.0,0.0,0.0,0.0
1055,0.0,0.0,-0.374525679934,0.927216541629,0.0,0.0,0.0,0.0,0.0,0.0
1056,0.0,0.0,-0.374525679934,0.927216541629,0.0,0.0,0.0,0.0,0.0,0.0
1057,0.0,0.0,-0.374525679934,0.927216541629,0.0,0.0,0.0,0.0,0.0,0.0
1058,0.0,0.0,-0.374525679934,0.927216541629,0.0,0.0,0.0,0.0,0.0,0.0
1059,0.0,0.0,-0.374525679934,0.927216541629,0.0,0.0,0.0,0.0,0.0,0.0
1060,0.0,0.0,-0.374525679934,0.927216541629,0.0,0.0,0.0,0.0,0.0,0.0
1061,0.0,0.0,-0.374525679934,0.927216541629,0.0,0.0,0.0,0.0,0.0,0.0
1062,0.0,0.0,-0.374525679934,0.927216541629,0.0,0.0,0.0,0.0,0.0,0.0
1063,0.0,0.0,-0.374525679934,0.927216541629,0.0,0.0,0.0,0.0,0.0,0.0
1064,0.0,0.0,-0.374525679934,0.927216541629,0.0,0.0,0.0,0.0,0.0,0.0
1065,0.0,0.0,-0.374525679934,0.927216541629,0.0,0.0,0.0,0.0,0.0,0.0
1066,0.0,0.0,-0.374525679934,0.927216541629,0.0,0.0,0.0,0.0,0.0,0.0
1067,0.0,0.0,-0.374525679934,0.927216541629,0.0,0.0,0.0,0.0,0.0,0.0
1068,0.0,0.0,-0.374525679934,0.927216541629,0.0,0.0,0.0,0.0,0.0,0.0
