time,.header.seq,.header.stamp.secs,.header.stamp.nsecs,.header.frame_id,.orientation.x,.orientation.y,.orientation.z,.orientation.w,.orientation_covariance,.angular_velocity.x,.angular_velocity.y,.angular_velocity.z,.angular_velocity_covariance,.linear_acceleration.x,.linear_acceleration.y,.linear_acceleration.z,.linear_acceleration_covariance
2019/10/07/19:13:58.632593,3641,1570443238,632279137,gyro_link,0.0,0.0,0.959412471854,0.2820065759,"(1.7976931348623157e+308, 0.0, 0.0, 0.0, 1.7976931348623157e+308, 0.0, 0.0, 0.0, 0.05)",0.0,0.0,0.0,"(1.7976931348623157e+308, 0.0, 0.0, 0.0, 1.7976931348623157e+308, 0.0, 0.0, 0.0, 0.05)",0.0,0.0,0.0,"(0.0, 0.0, 0.0, 0.0, 0.0, 0.0, 0.0, 0.0, 0.0)"
2019/10/07/19:13:58.692904,3642,1570443238,692091950,gyro_link,0.0,0.0,0.959412471854,0.2820065759,"(1.7976931348623157e+308, 0.0, 0.0, 0.0, 1.7976931348623157e+308, 0.0, 0.0, 0.0, 0.05)",0.0,0.0,0.0,"(1.7976931348623157e+308, 0.0, 0.0, 0.0, 1.7976931348623157e+308, 0.0, 0.0, 0.0, 0.05)",0.0,0.0,0.0,"(0.0, 0.0, 0.0, 0.0, 0.0, 0.0, 0.0, 0.0, 0.0)"
2019/10/07/19:13:58.752882,3643,1570443238,752371138,gyro_link,0.0,0.0,0.959412471854,0.2820065759,"(1.7976931348623157e+308, 0.0, 0.0, 0.0, 1.7976931348623157e+308, 0.0, 0.0, 0.0, 0.05)",0.0,0.0,0.0,"(1.7976931348623157e+308, 0.0, 0.0, 0.0, 1.7976931348623157e+308, 0.0, 0.0, 0.0, 0.05)",0.0,0.0,0.0,"(0.0, 0.0, 0.0, 0.0, 0.0, 0.0, 0.0, 0.0, 0.0)"
2019/10/07/19:13:58.812732,3644,1570443238,812205773,gyro_link,0.0,0.0,0.959412471854,0.2820065759,"(1.7976931348623157e+308, 0.0, 0.0, 0.0, 1.7976931348623157e+308, 0.0, 0.0, 0.0, 0.05)",0.0,0.0,0.0,"(1.7976931348623157e+308, 0.0, 0.0, 0.0, 1.7976931348623157e+308, 0.0, 0.0, 0.0, 0.05)",0.0,0.0,0.0,"(0.0, 0.0, 0.0, 0.0, 0.0, 0.0, 0.0, 0.0, 0.0)"
2019/10/07/19:13:58.872558,3645,1570443238,872126683,gyro_link,0.0,0.0,0.959412471854,0.2820065759,"(1.7976931348623157e+308, 0.0, 0.0, 0.0, 1.7976931348623157e+308, 0.0, 0.0, 0.0, 0.05)",0.0,0.0,0.0,"(1.7976931348623157e+308, 0.0, 0.0, 0.0, 1.7976931348623157e+308, 0.0, 0.0, 0.0, 0.05)",0.0,0.0,0.0,"(0.0, 0.0, 0.0, 0.0, 0.0, 0.0, 0.0, 0.0, 0.0)"
2019/10/07/19:13:58.932384,3646,1570443238,931981253,gyro_link,0.0,0.0,0.959412471854,0.2820065759,"(1.7976931348623157e+308, 0.0, 0.0, 0.0, 1.7976931348623157e+308, 0.0, 0.0, 0.0, 0.05)",0.0,0.0,0.0,"(1.7976931348623157e+308, 0.0, 0.0, 0.0, 1.7976931348623157e+308, 0.0, 0.0, 0.0, 0.05)",0.0,0.0,0.0,"(0.0, 0.0, 0.0, 0.0, 0.0, 0.0, 0.0, 0.0, 0.0)"
2019/10/07/19:13:58.991351,3647,1570443238,991149575,gyro_link,0.0,0.0,0.959412471854,0.2820065759,"(1.7976931348623157e+308, 0.0, 0.0, 0.0, 1.7976931348623157e+308, 0.0, 0.0, 0.0, 0.05)",0.0,0.0,0.0,"(1.7976931348623157e+308, 0.0, 0.0, 0.0, 1.7976931348623157e+308, 0.0, 0.0, 0.0, 0.05)",0.0,0.0,0.0,"(0.0, 0.0, 0.0, 0.0, 0.0, 0.0, 0.0, 0.0, 0.0)"
2019/10/07/19:13:59.052028,3648,1570443239,51662798,gyro_link,0.0,0.0,0.959412471854,0.2820065759,"(1.7976931348623157e+308, 0.0, 0.0, 0.0, 1.7976931348623157e+308, 0.0, 0.0, 0.0, 0.05)",0.0,0.0,0.0,"(1.7976931348623157e+308, 0.0, 0.0, 0.0, 1.7976931348623157e+308, 0.0, 0.0, 0.0, 0.05)",0.0,0.0,0.0,"(0.0, 0.0, 0.0, 0.0, 0.0, 0.0, 0.0, 0.0, 0.0)"
2019/10/07/19:13:59.111100,3649,1570443239,110595528,gyro_link,0.0,0.0,0.959412471854,0.2820065759,"(1.7976931348623157e+308, 0.0, 0.0, 0.0, 1.7976931348623157e+308, 0.0, 0.0, 0.0, 0.05)",0.0,0.0,0.0,"(1.7976931348623157e+308, 0.0, 0.0, 0.0, 1.7976931348623157e+308, 0.0, 0.0, 0.0, 0.05)",0.0,0.0,0.0,"(0.0, 0.0, 0.0, 0.0, 0.0, 0.0, 0.0, 0.0, 0.0)"
2019/10/07/19:13:59.168797,3650,1570443239,168302777,gyro_link,0.0,0.0,0.959412471854,0.2820065759,"(1.7976931348623157e+308, 0.0, 0.0, 0.0, 1.7976931348623157e+308, 0.0, 0.0, 0.0, 0.05)",0.0,0.0,0.0,"(1.7976931348623157e+308, 0.0, 0.0, 0.0, 1.7976931348623157e+308, 0.0, 0.0, 0.0, 0.05)",0.0,0.0,0.0,"(0.0, 0.0, 0.0, 0.0, 0.0, 0.0, 0.0, 0.0, 0.0)"
2019/10/07/19:13:59.191830,3651,1570443239,191430507,gyro_link,0.0,0.0,0.959412471854,0.2820065759,"(1.7976931348623157e+308, 0.0, 0.0, 0.0, 1.7976931348623157e+308, 0.0, 0.0, 0.0, 0.05)",0.0,0.0,0.0,"(1.7976931348623157e+308, 0.0, 0.0, 0.0, 1.7976931348623157e+308, 0.0, 0.0, 0.0, 0.05)",0.0,0.0,0.0,"(0.0, 0.0, 0.0, 0.0, 0.0, 0.0, 0.0, 0.0, 0.0)"
2019/10/07/19:13:59.250826,3652,1570443239,250274684,gyro_link,0.0,0.0,0.959412471854,0.2820065759,"(1.7976931348623157e+308, 0.0, 0.0, 0.0, 1.7976931348623157e+308, 0.0, 0.0, 0.0, 0.05)",0.0,0.0,0.0,"(1.7976931348623157e+308, 0.0, 0.0, 0.0, 1.7976931348623157e+308, 0.0, 0.0, 0.0, 0.05)",0.0,0.0,0.0,"(0.0, 0.0, 0.0, 0.0, 0.0, 0.0, 0.0, 0.0, 0.0)"
2019/10/07/19:13:59.271818,3653,1570443239,271370584,gyro_link,0.0,0.0,0.959412471854,0.2820065759,"(1.7976931348623157e+308, 0.0, 0.0, 0.0, 1.7976931348623157e+308, 0.0, 0.0, 0.0, 0.05)",0.0,0.0,0.0,"(1.7976931348623157e+308, 0.0, 0.0, 0.0, 1.7976931348623157e+308, 0.0, 0.0, 0.0, 0.05)",0.0,0.0,0.0,"(0.0, 0.0, 0.0, 0.0, 0.0, 0.0, 0.0, 0.0, 0.0)"
2019/10/07/19:13:59.331557,3654,1570443239,331196064,gyro_link,0.0,0.0,0.959412471854,0.2820065759,"(1.7976931348623157e+308, 0.0, 0.0, 0.0, 1.7976931348623157e+308, 0.0, 0.0, 0.0, 0.05)",0.0,0.0,0.0,"(1.7976931348623157e+308, 0.0, 0.0, 0.0, 1.7976931348623157e+308, 0.0, 0.0, 0.0, 0.05)",0.0,0.0,0.0,"(0.0, 0.0, 0.0, 0.0, 0.0, 0.0, 0.0, 0.0, 0.0)"
2019/10/07/19:13:59.391635,3655,1570443239,391033347,gyro_link,0.0,0.0,0.959412471854,0.2820065759,"(1.7976931348623157e+308, 0.0, 0.0, 0.0, 1.7976931348623157e+308, 0.0, 0.0, 0.0, 0.05)",0.0,0.0,0.0,"(1.7976931348623157e+308, 0.0, 0.0, 0.0, 1.7976931348623157e+308, 0.0, 0.0, 0.0, 0.05)",0.0,0.0,0.0,"(0.0, 0.0, 0.0, 0.0, 0.0, 0.0, 0.0, 0.0, 0.0)"
2019/10/07/19:13:59.450378,3656,1570443239,449884858,gyro_link,0.0,0.0,0.959412471854,0.2820065759,"(1.7976931348623157e+308, 0.0, 0.0, 0.0, 1.7976931348623157e+308, 0.0, 0.0, 0.0, 0.05)",0.0,0.0,0.0,"(1.7976931348623157e+308, 0.0, 0.0, 0.0, 1.7976931348623157e+308, 0.0, 0.0, 0.0, 0.05)",0.0,0.0,0.0,"(0.0, 0.0, 0.0, 0.0, 0.0, 0.0, 0.0, 0.0, 0.0)"
2019/10/07/19:13:59.508081,3657,1570443239,507644920,gyro_link,0.0,0.0,0.959412471854,0.2820065759,"(1.7976931348623157e+308, 0.0, 0.0, 0.0, 1.7976931348623157e+308, 0.0, 0.0, 0.0, 0.05)",0.0,0.0,0.0,"(1.7976931348623157e+308, 0.0, 0.0, 0.0, 1.7976931348623157e+308, 0.0, 0.0, 0.0, 0.05)",0.0,0.0,0.0,"(0.0, 0.0, 0.0, 0.0, 0.0, 0.0, 0.0, 0.0, 0.0)"
2019/10/07/19:13:59.530279,3658,1570443239,529783976,gyro_link,0.0,0.0,0.959412471854,0.2820065759,"(1.7976931348623157e+308, 0.0, 0.0, 0.0, 1.7976931348623157e+308, 0.0, 0.0, 0.0, 0.05)",0.0,0.0,0.0,"(1.7976931348623157e+308, 0.0, 0.0, 0.0, 1.7976931348623157e+308, 0.0, 0.0, 0.0, 0.05)",0.0,0.0,0.0,"(0.0, 0.0, 0.0, 0.0, 0.0, 0.0, 0.0, 0.0, 0.0)"
2019/10/07/19:13:59.590072,3659,1570443239,589623581,gyro_link,0.0,0.0,0.959412471854,0.2820065759,"(1.7976931348623157e+308, 0.0, 0.0, 0.0, 1.7976931348623157e+308, 0.0, 0.0, 0.0, 0.05)",0.0,0.0,0.0,"(1.7976931348623157e+308, 0.0, 0.0, 0.0, 1.7976931348623157e+308, 0.0, 0.0, 0.0, 0.05)",0.0,0.0,0.0,"(0.0, 0.0, 0.0, 0.0, 0.0, 0.0, 0.0, 0.0, 0.0)"
2019/10/07/19:13:59.648090,3660,1570443239,647383295,gyro_link,0.0,0.0,0.959412471854,0.2820065759,"(1.7976931348623157e+308, 0.0, 0.0, 0.0, 1.7976931348623157e+308, 0.0, 0.0, 0.0, 0.05)",0.0,0.0,0.0,"(1.7976931348623157e+308, 0.0, 0.0, 0.0, 1.7976931348623157e+308, 0.0, 0.0, 0.0, 0.05)",0.0,0.0,0.0,"(0.0, 0.0, 0.0, 0.0, 0.0, 0.0, 0.0, 0.0, 0.0)"
2019/10/07/19:13:59.670210,3661,1570443239,669549281,gyro_link,0.0,0.0,0.959412471854,0.2820065759,"(1.7976931348623157e+308, 0.0, 0.0, 0.0, 1.7976931348623157e+308, 0.0, 0.0, 0.0, 0.05)",0.0,0.0,0.0,"(1.7976931348623157e+308, 0.0, 0.0, 0.0, 1.7976931348623157e+308, 0.0, 0.0, 0.0, 0.05)",0.0,0.0,0.0,"(0.0, 0.0, 0.0, 0.0, 0.0, 0.0, 0.0, 0.0, 0.0)"
2019/10/07/19:13:59.729865,3662,1570443239,729335256,gyro_link,0.0,0.0,0.959412471854,0.2820065759,"(1.7976931348623157e+308, 0.0, 0.0, 0.0, 1.7976931348623157e+308, 0.0, 0.0, 0.0, 0.05)",0.0,0.0,-0.000872664625997,"(1.7976931348623157e+308, 0.0, 0.0, 0.0, 1.7976931348623157e+308, 0.0, 0.0, 0.0, 0.05)",0.0,0.0,0.0,"(0.0, 0.0, 0.0, 0.0, 0.0, 0.0, 0.0, 0.0, 0.0)"
2019/10/07/19:13:59.789815,3663,1570443239,789185977,gyro_link,0.0,0.0,0.959412471854,0.2820065759,"(1.7976931348623157e+308, 0.0, 0.0, 0.0, 1.7976931348623157e+308, 0.0, 0.0, 0.0, 0.05)",0.0,0.0,0.00261799387799,"(1.7976931348623157e+308, 0.0, 0.0, 0.0, 1.7976931348623157e+308, 0.0, 0.0, 0.0, 0.05)",0.0,0.0,0.0,"(0.0, 0.0, 0.0, 0.0, 0.0, 0.0, 0.0, 0.0, 0.0)"
2019/10/07/19:13:59.849398,3664,1570443239,848936588,gyro_link,0.0,0.0,0.959412471854,0.2820065759,"(1.7976931348623157e+308, 0.0, 0.0, 0.0, 1.7976931348623157e+308, 0.0, 0.0, 0.0, 0.05)",0.0,0.0,-0.00226892802759,"(1.7976931348623157e+308, 0.0, 0.0, 0.0, 1.7976931348623157e+308, 0.0, 0.0, 0.0, 0.05)",0.0,0.0,0.0,"(0.0, 0.0, 0.0, 0.0, 0.0, 0.0, 0.0, 0.0, 0.0)"
2019/10/07/19:13:59.909402,3665,1570443239,909019350,gyro_link,0.0,0.0,0.959338609827,0.282257739831,"(1.7976931348623157e+308, 0.0, 0.0, 0.0, 1.7976931348623157e+308, 0.0, 0.0, 0.0, 0.05)",0.0,0.0,0.000349065850399,"(1.7976931348623157e+308, 0.0, 0.0, 0.0, 1.7976931348623157e+308, 0.0, 0.0, 0.0, 0.05)",0.0,0.0,0.0,"(0.0, 0.0, 0.0, 0.0, 0.0, 0.0, 0.0, 0.0, 0.0)"
2019/10/07/19:13:59.969630,3666,1570443239,968864435,gyro_link,0.0,0.0,0.959363237809,0.282174020669,"(1.7976931348623157e+308, 0.0, 0.0, 0.0, 1.7976931348623157e+308, 0.0, 0.0, 0.0, 0.05)",0.0,0.0,-0.000872664625997,"(1.7976931348623157e+308, 0.0, 0.0, 0.0, 1.7976931348623157e+308, 0.0, 0.0, 0.0, 0.05)",0.0,0.0,0.0,"(0.0, 0.0, 0.0, 0.0, 0.0, 0.0, 0.0, 0.0, 0.0)"
2019/10/07/19:14:00.029222,3667,1570443240,28628949,gyro_link,0.0,0.0,0.958794946203,0.284099016429,"(1.7976931348623157e+308, 0.0, 0.0, 0.0, 1.7976931348623157e+308, 0.0, 0.0, 0.0, 0.05)",0.0,0.0,-0.0844739357965,"(1.7976931348623157e+308, 0.0, 0.0, 0.0, 1.7976931348623157e+308, 0.0, 0.0, 0.0, 0.05)",0.0,0.0,0.0,"(0.0, 0.0, 0.0, 0.0, 0.0, 0.0, 0.0, 0.0, 0.0)"
2019/10/07/19:14:00.089654,3668,1570443240,88743673,gyro_link,0.0,0.0,0.958521789017,0.28501926247,"(1.7976931348623157e+308, 0.0, 0.0, 0.0, 1.7976931348623157e+308, 0.0, 0.0, 0.0, 0.05)",0.0,0.0,-0.00366519142919,"(1.7976931348623157e+308, 0.0, 0.0, 0.0, 1.7976931348623157e+308, 0.0, 0.0, 0.0, 0.05)",0.0,0.0,0.0,"(0.0, 0.0, 0.0, 0.0, 0.0, 0.0, 0.0, 0.0, 0.0)"
2019/10/07/19:14:00.149217,3669,1570443240,148524165,gyro_link,0.0,0.0,0.95862122111,0.284684657889,"(1.7976931348623157e+308, 0.0, 0.0, 0.0, 1.7976931348623157e+308, 0.0, 0.0, 0.0, 0.05)",0.0,0.0,-0.000174532925199,"(1.7976931348623157e+308, 0.0, 0.0, 0.0, 1.7976931348623157e+308, 0.0, 0.0, 0.0, 0.05)",0.0,0.0,0.0,"(0.0, 0.0, 0.0, 0.0, 0.0, 0.0, 0.0, 0.0, 0.0)"
2019/10/07/19:14:00.209301,3670,1570443240,208584747,gyro_link,0.0,0.0,0.958596374037,0.284768312288,"(1.7976931348623157e+308, 0.0, 0.0, 0.0, 1.7976931348623157e+308, 0.0, 0.0, 0.0, 0.05)",0.0,0.0,0.00488692190558,"(1.7976931348623157e+308, 0.0, 0.0, 0.0, 1.7976931348623157e+308, 0.0, 0.0, 0.0, 0.05)",0.0,0.0,0.0,"(0.0, 0.0, 0.0, 0.0, 0.0, 0.0, 0.0, 0.0, 0.0)"
2019/10/07/19:14:00.268872,3671,1570443240,268406392,gyro_link,0.0,0.0,0.958447138302,0.285270193117,"(1.7976931348623157e+308, 0.0, 0.0, 0.0, 1.7976931348623157e+308, 0.0, 0.0, 0.0, 0.05)",0.0,0.0,-0.0317649923863,"(1.7976931348623157e+308, 0.0, 0.0, 0.0, 1.7976931348623157e+308, 0.0, 0.0, 0.0, 0.05)",0.0,0.0,0.0,"(0.0, 0.0, 0.0, 0.0, 0.0, 0.0, 0.0, 0.0, 0.0)"
2019/10/07/19:14:00.328765,3672,1570443240,328311875,gyro_link,0.0,0.0,0.958422240132,0.285353832322,"(1.7976931348623157e+308, 0.0, 0.0, 0.0, 1.7976931348623157e+308, 0.0, 0.0, 0.0, 0.05)",0.0,0.0,0.00349065850399,"(1.7976931348623157e+308, 0.0, 0.0, 0.0, 1.7976931348623157e+308, 0.0, 0.0, 0.0, 0.05)",0.0,0.0,0.0,"(0.0, 0.0, 0.0, 0.0, 0.0, 0.0, 0.0, 0.0, 0.0)"
2019/10/07/19:14:00.388741,3673,1570443240,387989479,gyro_link,0.0,0.0,0.958372421895,0.285521104212,"(1.7976931348623157e+308, 0.0, 0.0, 0.0, 1.7976931348623157e+308, 0.0, 0.0, 0.0, 0.05)",0.0,0.0,-0.00715584993318,"(1.7976931348623157e+308, 0.0, 0.0, 0.0, 1.7976931348623157e+308, 0.0, 0.0, 0.0, 0.05)",0.0,0.0,0.0,"(0.0, 0.0, 0.0, 0.0, 0.0, 0.0, 0.0, 0.0, 0.0)"
2019/10/07/19:14:00.448655,3674,1570443240,448069132,gyro_link,0.0,0.0,0.958397334663,0.285437469354,"(1.7976931348623157e+308, 0.0, 0.0, 0.0, 1.7976931348623157e+308, 0.0, 0.0, 0.0, 0.05)",0.0,0.0,-0.012217304764,"(1.7976931348623157e+308, 0.0, 0.0, 0.0, 1.7976931348623157e+308, 0.0, 0.0, 0.0, 0.05)",0.0,0.0,0.0,"(0.0, 0.0, 0.0, 0.0, 0.0, 0.0, 0.0, 0.0, 0.0)"
2019/10/07/19:14:00.508464,3675,1570443240,507896259,gyro_link,0.0,0.0,0.958272697843,0.285855621895,"(1.7976931348623157e+308, 0.0, 0.0, 0.0, 1.7976931348623157e+308, 0.0, 0.0, 0.0, 0.05)",0.0,0.0,-0.00767944870878,"(1.7976931348623157e+308, 0.0, 0.0, 0.0, 1.7976931348623157e+308, 0.0, 0.0, 0.0, 0.05)",0.0,0.0,0.0,"(0.0, 0.0, 0.0, 0.0, 0.0, 0.0, 0.0, 0.0, 0.0)"
2019/10/07/19:14:00.568142,3676,1570443240,567635944,gyro_link,0.0,0.0,0.958247748585,0.285939245875,"(1.7976931348623157e+308, 0.0, 0.0, 0.0, 1.7976931348623157e+308, 0.0, 0.0, 0.0, 0.05)",0.0,0.0,-0.0013962634016,"(1.7976931348623157e+308, 0.0, 0.0, 0.0, 1.7976931348623157e+308, 0.0, 0.0, 0.0, 0.05)",0.0,0.0,0.0,"(0.0, 0.0, 0.0, 0.0, 0.0, 0.0, 0.0, 0.0, 0.0)"
2019/10/07/19:14:00.627149,3677,1570443240,626640998,gyro_link,0.0,0.0,0.958172857028,0.286190104747,"(1.7976931348623157e+308, 0.0, 0.0, 0.0, 1.7976931348623157e+308, 0.0, 0.0, 0.0, 0.05)",0.0,0.0,-0.0146607657168,"(1.7976931348623157e+308, 0.0, 0.0, 0.0, 1.7976931348623157e+308, 0.0, 0.0, 0.0, 0.05)",0.0,0.0,0.0,"(0.0, 0.0, 0.0, 0.0, 0.0, 0.0, 0.0, 0.0, 0.0)"
2019/10/07/19:14:00.685431,3678,1570443240,685060811,gyro_link,0.0,0.0,0.958097899798,0.286440944004,"(1.7976931348623157e+308, 0.0, 0.0, 0.0, 1.7976931348623157e+308, 0.0, 0.0, 0.0, 0.05)",0.0,0.0,-0.00174532925199,"(1.7976931348623157e+308, 0.0, 0.0, 0.0, 1.7976931348623157e+308, 0.0, 0.0, 0.0, 0.05)",0.0,0.0,0.0,"(0.0, 0.0, 0.0, 0.0, 0.0, 0.0, 0.0, 0.0, 0.0)"
2019/10/07/19:14:00.706794,3679,1570443240,706374524,gyro_link,0.0,0.0,0.958097899798,0.286440944004,"(1.7976931348623157e+308, 0.0, 0.0, 0.0, 1.7976931348623157e+308, 0.0, 0.0, 0.0, 0.05)",0.0,0.0,-0.00157079632679,"(1.7976931348623157e+308, 0.0, 0.0, 0.0, 1.7976931348623157e+308, 0.0, 0.0, 0.0, 0.05)",0.0,0.0,0.0,"(0.0, 0.0, 0.0, 0.0, 0.0, 0.0, 0.0, 0.0, 0.0)"
2019/10/07/19:14:00.765235,3680,1570443240,764474710,gyro_link,0.0,0.0,0.958072899462,0.286524552728,"(1.7976931348623157e+308, 0.0, 0.0, 0.0, 1.7976931348623157e+308, 0.0, 0.0, 0.0, 0.05)",0.0,0.0,0.00645771823238,"(1.7976931348623157e+308, 0.0, 0.0, 0.0, 1.7976931348623157e+308, 0.0, 0.0, 0.0, 0.05)",0.0,0.0,0.0,"(0.0, 0.0, 0.0, 0.0, 0.0, 0.0, 0.0, 0.0, 0.0)"
2019/10/07/19:14:00.787047,3681,1570443240,786352361,gyro_link,0.0,0.0,0.958122892838,0.286357333099,"(1.7976931348623157e+308, 0.0, 0.0, 0.0, 1.7976931348623157e+308, 0.0, 0.0, 0.0, 0.05)",0.0,0.0,0.0209439510239,"(1.7976931348623157e+308, 0.0, 0.0, 0.0, 1.7976931348623157e+308, 0.0, 0.0, 0.0, 0.05)",0.0,0.0,0.0,"(0.0, 0.0, 0.0, 0.0, 0.0, 0.0, 0.0, 0.0, 0.0)"
2019/10/07/19:14:00.844680,3682,1570443240,844160835,gyro_link,0.0,0.0,0.958097899798,0.286440944004,"(1.7976931348623157e+308, 0.0, 0.0, 0.0, 1.7976931348623157e+308, 0.0, 0.0, 0.0, 0.05)",0.0,0.0,-0.0186750229963,"(1.7976931348623157e+308, 0.0, 0.0, 0.0, 1.7976931348623157e+308, 0.0, 0.0, 0.0, 0.05)",0.0,0.0,0.0,"(0.0, 0.0, 0.0, 0.0, 0.0, 0.0, 0.0, 0.0, 0.0)"
2019/10/07/19:14:00.866704,3683,1570443240,866153333,gyro_link,0.0,0.0,0.958072899462,0.286524552728,"(1.7976931348623157e+308, 0.0, 0.0, 0.0, 1.7976931348623157e+308, 0.0, 0.0, 0.0, 0.05)",0.0,0.0,-0.0178023583703,"(1.7976931348623157e+308, 0.0, 0.0, 0.0, 1.7976931348623157e+308, 0.0, 0.0, 0.0, 0.05)",0.0,0.0,0.0,"(0.0, 0.0, 0.0, 0.0, 0.0, 0.0, 0.0, 0.0, 0.0)"
2019/10/07/19:14:00.926387,3684,1570443240,925844857,gyro_link,0.0,0.0,0.957947788344,0.286942563604,"(1.7976931348623157e+308, 0.0, 0.0, 0.0, 1.7976931348623157e+308, 0.0, 0.0, 0.0, 0.05)",0.0,0.0,-0.00767944870878,"(1.7976931348623157e+308, 0.0, 0.0, 0.0, 1.7976931348623157e+308, 0.0, 0.0, 0.0, 0.05)",0.0,0.0,0.0,"(0.0, 0.0, 0.0, 0.0, 0.0, 0.0, 0.0, 0.0, 0.0)"
2019/10/07/19:14:00.984327,3685,1570443240,983878128,gyro_link,0.0,0.0,0.957922744234,0.287026159226,"(1.7976931348623157e+308, 0.0, 0.0, 0.0, 1.7976931348623157e+308, 0.0, 0.0, 0.0, 0.05)",0.0,0.0,-0.0101229096616,"(1.7976931348623157e+308, 0.0, 0.0, 0.0, 1.7976931348623157e+308, 0.0, 0.0, 0.0, 0.05)",0.0,0.0,0.0,"(0.0, 0.0, 0.0, 0.0, 0.0, 0.0, 0.0, 0.0, 0.0)"
2019/10/07/19:14:01.006522,3686,1570443241,5993347,gyro_link,0.0,0.0,0.957897692829,0.287109752662,"(1.7976931348623157e+308, 0.0, 0.0, 0.0, 1.7976931348623157e+308, 0.0, 0.0, 0.0, 0.05)",0.0,0.0,-0.00837758040957,"(1.7976931348623157e+308, 0.0, 0.0, 0.0, 1.7976931348623157e+308, 0.0, 0.0, 0.0, 0.05)",0.0,0.0,0.0,"(0.0, 0.0, 0.0, 0.0, 0.0, 0.0, 0.0, 0.0, 0.0)"
2019/10/07/19:14:01.064297,3687,1570443241,63736528,gyro_link,0.0,0.0,0.957847568134,0.287276932975,"(1.7976931348623157e+308, 0.0, 0.0, 0.0, 1.7976931348623157e+308, 0.0, 0.0, 0.0, 0.05)",0.0,0.0,-0.00558505360638,"(1.7976931348623157e+308, 0.0, 0.0, 0.0, 1.7976931348623157e+308, 0.0, 0.0, 0.0, 0.05)",0.0,0.0,0.0,"(0.0, 0.0, 0.0, 0.0, 0.0, 0.0, 0.0, 0.0, 0.0)"
2019/10/07/19:14:01.086101,3688,1570443241,85752926,gyro_link,0.0,0.0,0.957847568134,0.287276932975,"(1.7976931348623157e+308, 0.0, 0.0, 0.0, 1.7976931348623157e+308, 0.0, 0.0, 0.0, 0.05)",0.0,0.0,0.0012217304764,"(1.7976931348623157e+308, 0.0, 0.0, 0.0, 1.7976931348623157e+308, 0.0, 0.0, 0.0, 0.05)",0.0,0.0,0.0,"(0.0, 0.0, 0.0, 0.0, 0.0, 0.0, 0.0, 0.0, 0.0)"
2019/10/07/19:14:01.146116,3689,1570443241,145718003,gyro_link,0.0,0.0,0.957847568134,0.287276932975,"(1.7976931348623157e+308, 0.0, 0.0, 0.0, 1.7976931348623157e+308, 0.0, 0.0, 0.0, 0.05)",0.0,0.0,-0.000872664625997,"(1.7976931348623157e+308, 0.0, 0.0, 0.0, 1.7976931348623157e+308, 0.0, 0.0, 0.0, 0.05)",0.0,0.0,0.0,"(0.0, 0.0, 0.0, 0.0, 0.0, 0.0, 0.0, 0.0, 0.0)"
2019/10/07/19:14:01.205848,3690,1570443241,205472312,gyro_link,0.0,0.0,0.957772326385,0.287527687034,"(1.7976931348623157e+308, 0.0, 0.0, 0.0, 1.7976931348623157e+308, 0.0, 0.0, 0.0, 0.05)",0.0,0.0,-0.0143116998664,"(1.7976931348623157e+308, 0.0, 0.0, 0.0, 1.7976931348623157e+308, 0.0, 0.0, 0.0, 0.05)",0.0,0.0,0.0,"(0.0, 0.0, 0.0, 0.0, 0.0, 0.0, 0.0, 0.0, 0.0)"
2019/10/07/19:14:01.266091,3691,1570443241,265361079,gyro_link,0.0,0.0,0.957697018991,0.287778421386,"(1.7976931348623157e+308, 0.0, 0.0, 0.0, 1.7976931348623157e+308, 0.0, 0.0, 0.0, 0.05)",0.0,0.0,-0.000523598775598,"(1.7976931348623157e+308, 0.0, 0.0, 0.0, 1.7976931348623157e+308, 0.0, 0.0, 0.0, 0.05)",0.0,0.0,0.0,"(0.0, 0.0, 0.0, 0.0, 0.0, 0.0, 0.0, 0.0, 0.0)"
2019/10/07/19:14:01.325850,3692,1570443241,325387930,gyro_link,0.0,0.0,0.957747231214,0.287611267342,"(1.7976931348623157e+308, 0.0, 0.0, 0.0, 1.7976931348623157e+308, 0.0, 0.0, 0.0, 0.05)",0.0,0.0,-0.00506145483078,"(1.7976931348623157e+308, 0.0, 0.0, 0.0, 1.7976931348623157e+308, 0.0, 0.0, 0.0, 0.05)",0.0,0.0,0.0,"(0.0, 0.0, 0.0, 0.0, 0.0, 0.0, 0.0, 0.0, 0.0)"
2019/10/07/19:14:01.385954,3693,1570443241,385422144,gyro_link,0.0,0.0,0.95767190194,0.287861995122,"(1.7976931348623157e+308, 0.0, 0.0, 0.0, 1.7976931348623157e+308, 0.0, 0.0, 0.0, 0.05)",0.0,0.0,-0.00820304748437,"(1.7976931348623157e+308, 0.0, 0.0, 0.0, 1.7976931348623157e+308, 0.0, 0.0, 0.0, 0.05)",0.0,0.0,0.0,"(0.0, 0.0, 0.0, 0.0, 0.0, 0.0, 0.0, 0.0, 0.0)"
2019/10/07/19:14:01.445747,3694,1570443241,445331652,gyro_link,0.0,0.0,0.957596507027,0.288112703171,"(1.7976931348623157e+308, 0.0, 0.0, 0.0, 1.7976931348623157e+308, 0.0, 0.0, 0.0, 0.05)",0.0,0.0,-0.0202458193231,"(1.7976931348623157e+308, 0.0, 0.0, 0.0, 1.7976931348623157e+308, 0.0, 0.0, 0.0, 0.05)",0.0,0.0,0.0,"(0.0, 0.0, 0.0, 0.0, 0.0, 0.0, 0.0, 0.0, 0.0)"
2019/10/07/19:14:01.505506,3695,1570443241,505141468,gyro_link,0.0,0.0,0.95767190194,0.287861995122,"(1.7976931348623157e+308, 0.0, 0.0, 0.0, 1.7976931348623157e+308, 0.0, 0.0, 0.0, 0.05)",0.0,0.0,0.012217304764,"(1.7976931348623157e+308, 0.0, 0.0, 0.0, 1.7976931348623157e+308, 0.0, 0.0, 0.0, 0.05)",0.0,0.0,0.0,"(0.0, 0.0, 0.0, 0.0, 0.0, 0.0, 0.0, 0.0, 0.0)"
2019/10/07/19:14:01.565633,3696,1570443241,565129864,gyro_link,0.0,0.0,0.957621645958,0.288029136015,"(1.7976931348623157e+308, 0.0, 0.0, 0.0, 1.7976931348623157e+308, 0.0, 0.0, 0.0, 0.05)",0.0,0.0,-0.0169296937443,"(1.7976931348623157e+308, 0.0, 0.0, 0.0, 1.7976931348623157e+308, 0.0, 0.0, 0.0, 0.05)",0.0,0.0,0.0,"(0.0, 0.0, 0.0, 0.0, 0.0, 0.0, 0.0, 0.0, 0.0)"
2019/10/07/19:14:01.625643,3697,1570443241,624982373,gyro_link,0.0,0.0,0.957571360805,0.288196268134,"(1.7976931348623157e+308, 0.0, 0.0, 0.0, 1.7976931348623157e+308, 0.0, 0.0, 0.0, 0.05)",0.0,0.0,0.00244346095279,"(1.7976931348623157e+308, 0.0, 0.0, 0.0, 1.7976931348623157e+308, 0.0, 0.0, 0.0, 0.05)",0.0,0.0,0.0,"(0.0, 0.0, 0.0, 0.0, 0.0, 0.0, 0.0, 0.0, 0.0)"
2019/10/07/19:14:01.685035,3698,1570443241,684479433,gyro_link,0.0,0.0,0.957470702993,0.288530506031,"(1.7976931348623157e+308, 0.0, 0.0, 0.0, 1.7976931348623157e+308, 0.0, 0.0, 0.0, 0.05)",0.0,0.0,-0.0207694180987,"(1.7976931348623157e+308, 0.0, 0.0, 0.0, 1.7976931348623157e+308, 0.0, 0.0, 0.0, 0.05)",0.0,0.0,0.0,"(0.0, 0.0, 0.0, 0.0, 0.0, 0.0, 0.0, 0.0, 0.0)"
2019/10/07/19:14:01.745123,3699,1570443241,744366936,gyro_link,0.0,0.0,0.957495878384,0.288446949851,"(1.7976931348623157e+308, 0.0, 0.0, 0.0, 1.7976931348623157e+308, 0.0, 0.0, 0.0, 0.05)",0.0,0.0,0.0193731546971,"(1.7976931348623157e+308, 0.0, 0.0, 0.0, 1.7976931348623157e+308, 0.0, 0.0, 0.0, 0.05)",0.0,0.0,0.0,"(0.0, 0.0, 0.0, 0.0, 0.0, 0.0, 0.0, 0.0, 0.0)"
2019/10/07/19:14:01.804839,3700,1570443241,804435935,gyro_link,0.0,0.0,0.957495878384,0.288446949851,"(1.7976931348623157e+308, 0.0, 0.0, 0.0, 1.7976931348623157e+308, 0.0, 0.0, 0.0, 0.05)",0.0,0.0,-0.0197222205475,"(1.7976931348623157e+308, 0.0, 0.0, 0.0, 1.7976931348623157e+308, 0.0, 0.0, 0.0, 0.05)",0.0,0.0,0.0,"(0.0, 0.0, 0.0, 0.0, 0.0, 0.0, 0.0, 0.0, 0.0)"
2019/10/07/19:14:01.864577,3701,1570443241,864073482,gyro_link,0.0,0.0,0.957395133072,0.288781161384,"(1.7976931348623157e+308, 0.0, 0.0, 0.0, 1.7976931348623157e+308, 0.0, 0.0, 0.0, 0.05)",0.0,0.0,-0.00506145483078,"(1.7976931348623157e+308, 0.0, 0.0, 0.0, 1.7976931348623157e+308, 0.0, 0.0, 0.0, 0.05)",0.0,0.0,0.0,"(0.0, 0.0, 0.0, 0.0, 0.0, 0.0, 0.0, 0.0, 0.0)"
2019/10/07/19:14:01.924137,3702,1570443241,923679996,gyro_link,0.0,0.0,0.957344716669,0.288948253958,"(1.7976931348623157e+308, 0.0, 0.0, 0.0, 1.7976931348623157e+308, 0.0, 0.0, 0.0, 0.05)",0.0,0.0,-0.0216420827247,"(1.7976931348623157e+308, 0.0, 0.0, 0.0, 1.7976931348623157e+308, 0.0, 0.0, 0.0, 0.05)",0.0,0.0,0.0,"(0.0, 0.0, 0.0, 0.0, 0.0, 0.0, 0.0, 0.0, 0.0)"
2019/10/07/19:14:01.981610,3703,1570443241,981015134,gyro_link,0.0,0.0,0.957319497532,0.289031796944,"(1.7976931348623157e+308, 0.0, 0.0, 0.0, 1.7976931348623157e+308, 0.0, 0.0, 0.0, 0.05)",0.0,0.0,0.00959931088597,"(1.7976931348623157e+308, 0.0, 0.0, 0.0, 1.7976931348623157e+308, 0.0, 0.0, 0.0, 0.05)",0.0,0.0,0.0,"(0.0, 0.0, 0.0, 0.0, 0.0, 0.0, 0.0, 0.0, 0.0)"
2019/10/07/19:14:02.004563,3704,1570443242,4038718,gyro_link,0.0,0.0,0.957344716669,0.288948253958,"(1.7976931348623157e+308, 0.0, 0.0, 0.0, 1.7976931348623157e+308, 0.0, 0.0, 0.0, 0.05)",0.0,0.0,0.00837758040957,"(1.7976931348623157e+308, 0.0, 0.0, 0.0, 1.7976931348623157e+308, 0.0, 0.0, 0.0, 0.05)",0.0,0.0,0.0,"(0.0, 0.0, 0.0, 0.0, 0.0, 0.0, 0.0, 0.0, 0.0)"
2019/10/07/19:14:02.063411,3705,1570443242,63194512,gyro_link,0.0,0.0,0.957294271104,0.28911533773,"(1.7976931348623157e+308, 0.0, 0.0, 0.0, 1.7976931348623157e+308, 0.0, 0.0, 0.0, 0.05)",0.0,0.0,0.00383972435439,"(1.7976931348623157e+308, 0.0, 0.0, 0.0, 1.7976931348623157e+308, 0.0, 0.0, 0.0, 0.05)",0.0,0.0,0.0,"(0.0, 0.0, 0.0, 0.0, 0.0, 0.0, 0.0, 0.0, 0.0)"
2019/10/07/19:14:02.121355,3706,1570443242,120740459,gyro_link,0.0,0.0,0.957420330337,0.288697611798,"(1.7976931348623157e+308, 0.0, 0.0, 0.0, 1.7976931348623157e+308, 0.0, 0.0, 0.0, 0.05)",0.0,0.0,0.00436332312999,"(1.7976931348623157e+308, 0.0, 0.0, 0.0, 1.7976931348623157e+308, 0.0, 0.0, 0.0, 0.05)",0.0,0.0,0.0,"(0.0, 0.0, 0.0, 0.0, 0.0, 0.0, 0.0, 0.0, 0.0)"
2019/10/07/19:14:02.143960,3707,1570443242,143643938,gyro_link,0.0,0.0,0.957369928516,0.288864708771,"(1.7976931348623157e+308, 0.0, 0.0, 0.0, 1.7976931348623157e+308, 0.0, 0.0, 0.0, 0.05)",0.0,0.0,-0.0219911485751,"(1.7976931348623157e+308, 0.0, 0.0, 0.0, 1.7976931348623157e+308, 0.0, 0.0, 0.0, 0.05)",0.0,0.0,0.0,"(0.0, 0.0, 0.0, 0.0, 0.0, 0.0, 0.0, 0.0, 0.0)"
2019/10/07/19:14:02.203171,3708,1570443242,202782054,gyro_link,0.0,0.0,0.957218548081,0.289365946873,"(1.7976931348623157e+308, 0.0, 0.0, 0.0, 1.7976931348623157e+308, 0.0, 0.0, 0.0, 0.05)",0.0,0.0,0.000523598775598,"(1.7976931348623157e+308, 0.0, 0.0, 0.0, 1.7976931348623157e+308, 0.0, 0.0, 0.0, 0.05)",0.0,0.0,0.0,"(0.0, 0.0, 0.0, 0.0, 0.0, 0.0, 0.0, 0.0, 0.0)"
2019/10/07/19:14:02.261033,3709,1570443242,260289111,gyro_link,0.0,0.0,0.957269037387,0.289198876314,"(1.7976931348623157e+308, 0.0, 0.0, 0.0, 1.7976931348623157e+308, 0.0, 0.0, 0.0, 0.05)",0.0,0.0,-0.0157079632679,"(1.7976931348623157e+308, 0.0, 0.0, 0.0, 1.7976931348623157e+308, 0.0, 0.0, 0.0, 0.05)",0.0,0.0,0.0,"(0.0, 0.0, 0.0, 0.0, 0.0, 0.0, 0.0, 0.0, 0.0)"
2019/10/07/19:14:02.282883,3710,1570443242,282348457,gyro_link,0.0,0.0,0.957193292494,0.289449478848,"(1.7976931348623157e+308, 0.0, 0.0, 0.0, 1.7976931348623157e+308, 0.0, 0.0, 0.0, 0.05)",0.0,0.0,-0.0254818070791,"(1.7976931348623157e+308, 0.0, 0.0, 0.0, 1.7976931348623157e+308, 0.0, 0.0, 0.0, 0.05)",0.0,0.0,0.0,"(0.0, 0.0, 0.0, 0.0, 0.0, 0.0, 0.0, 0.0, 0.0)"
2019/10/07/19:14:02.343090,3711,1570443242,342526385,gyro_link,0.0,0.0,0.957117481996,0.289700061544,"(1.7976931348623157e+308, 0.0, 0.0, 0.0, 1.7976931348623157e+308, 0.0, 0.0, 0.0, 0.05)",0.0,0.0,0.00209439510239,"(1.7976931348623157e+308, 0.0, 0.0, 0.0, 1.7976931348623157e+308, 0.0, 0.0, 0.0, 0.05)",0.0,0.0,0.0,"(0.0, 0.0, 0.0, 0.0, 0.0, 0.0, 0.0, 0.0, 0.0)"
2019/10/07/19:14:02.400723,3712,1570443242,400274072,gyro_link,0.0,0.0,0.956965664205,0.290201167351,"(1.7976931348623157e+308, 0.0, 0.0, 0.0, 1.7976931348623157e+308, 0.0, 0.0, 0.0, 0.05)",0.0,0.0,-0.0118682389136,"(1.7976931348623157e+308, 0.0, 0.0, 0.0, 1.7976931348623157e+308, 0.0, 0.0, 0.0, 0.05)",0.0,0.0,0.0,"(0.0, 0.0, 0.0, 0.0, 0.0, 0.0, 0.0, 0.0, 0.0)"
2019/10/07/19:14:02.422933,3713,1570443242,422394680,gyro_link,0.0,0.0,0.956940335732,0.290284677254,"(1.7976931348623157e+308, 0.0, 0.0, 0.0, 1.7976931348623157e+308, 0.0, 0.0, 0.0, 0.05)",0.0,0.0,-0.00959931088597,"(1.7976931348623157e+308, 0.0, 0.0, 0.0, 1.7976931348623157e+308, 0.0, 0.0, 0.0, 0.05)",0.0,0.0,0.0,"(0.0, 0.0, 0.0, 0.0, 0.0, 0.0, 0.0, 0.0, 0.0)"
2019/10/07/19:14:02.480440,3714,1570443242,480009408,gyro_link,0.0,0.0,0.957041605898,0.289950624384,"(1.7976931348623157e+308, 0.0, 0.0, 0.0, 1.7976931348623157e+308, 0.0, 0.0, 0.0, 0.05)",0.0,0.0,0.00523598775598,"(1.7976931348623157e+308, 0.0, 0.0, 0.0, 1.7976931348623157e+308, 0.0, 0.0, 0.0, 0.05)",0.0,0.0,0.0,"(0.0, 0.0, 0.0, 0.0, 0.0, 0.0, 0.0, 0.0, 0.0)"
2019/10/07/19:14:02.502237,3715,1570443242,501776072,gyro_link,0.0,0.0,0.956990985391,0.290117655238,"(1.7976931348623157e+308, 0.0, 0.0, 0.0, 1.7976931348623157e+308, 0.0, 0.0, 0.0, 0.05)",0.0,0.0,-0.0191986217719,"(1.7976931348623157e+308, 0.0, 0.0, 0.0, 1.7976931348623157e+308, 0.0, 0.0, 0.0, 0.05)",0.0,0.0,0.0,"(0.0, 0.0, 0.0, 0.0, 0.0, 0.0, 0.0, 0.0, 0.0)"
2019/10/07/19:14:02.562558,3716,1570443242,561924277,gyro_link,0.0,0.0,0.956838948966,0.290618694755,"(1.7976931348623157e+308, 0.0, 0.0, 0.0, 1.7976931348623157e+308, 0.0, 0.0, 0.0, 0.05)",0.0,0.0,-0.000349065850399,"(1.7976931348623157e+308, 0.0, 0.0, 0.0, 1.7976931348623157e+308, 0.0, 0.0, 0.0, 0.05)",0.0,0.0,0.0,"(0.0, 0.0, 0.0, 0.0, 0.0, 0.0, 0.0, 0.0, 0.0)"
2019/10/07/19:14:02.622643,3717,1570443242,621827949,gyro_link,0.0,0.0,0.956788211862,0.290785690228,"(1.7976931348623157e+308, 0.0, 0.0, 0.0, 1.7976931348623157e+308, 0.0, 0.0, 0.0, 0.05)",0.0,0.0,-0.0277507351067,"(1.7976931348623157e+308, 0.0, 0.0, 0.0, 1.7976931348623157e+308, 0.0, 0.0, 0.0, 0.05)",0.0,0.0,0.0,"(0.0, 0.0, 0.0, 0.0, 0.0, 0.0, 0.0, 0.0, 0.0)"
2019/10/07/19:14:02.682075,3718,1570443242,681614217,gyro_link,0.0,0.0,0.956762832381,0.290869184643,"(1.7976931348623157e+308, 0.0, 0.0, 0.0, 1.7976931348623157e+308, 0.0, 0.0, 0.0, 0.05)",0.0,0.0,0.0169296937443,"(1.7976931348623157e+308, 0.0, 0.0, 0.0, 1.7976931348623157e+308, 0.0, 0.0, 0.0, 0.05)",0.0,0.0,0.0,"(0.0, 0.0, 0.0, 0.0, 0.0, 0.0, 0.0, 0.0, 0.0)"
2019/10/07/19:14:02.741874,3719,1570443242,741500407,gyro_link,0.0,0.0,0.956762832381,0.290869184643,"(1.7976931348623157e+308, 0.0, 0.0, 0.0, 1.7976931348623157e+308, 0.0, 0.0, 0.0, 0.05)",0.0,0.0,-0.0289724655831,"(1.7976931348623157e+308, 0.0, 0.0, 0.0, 1.7976931348623157e+308, 0.0, 0.0, 0.0, 0.05)",0.0,0.0,0.0,"(0.0, 0.0, 0.0, 0.0, 0.0, 0.0, 0.0, 0.0, 0.0)"
2019/10/07/19:14:02.801956,3720,1570443242,801520682,gyro_link,0.0,0.0,0.956762832381,0.290869184643,"(1.7976931348623157e+308, 0.0, 0.0, 0.0, 1.7976931348623157e+308, 0.0, 0.0, 0.0, 0.05)",0.0,0.0,0.0183259571459,"(1.7976931348623157e+308, 0.0, 0.0, 0.0, 1.7976931348623157e+308, 0.0, 0.0, 0.0, 0.05)",0.0,0.0,0.0,"(0.0, 0.0, 0.0, 0.0, 0.0, 0.0, 0.0, 0.0, 0.0)"
2019/10/07/19:14:02.862112,3721,1570443242,861546924,gyro_link,0.0,0.0,0.956534089191,0.291620534626,"(1.7976931348623157e+308, 0.0, 0.0, 0.0, 1.7976931348623157e+308, 0.0, 0.0, 0.0, 0.05)",0.0,0.0,-0.0527089434102,"(1.7976931348623157e+308, 0.0, 0.0, 0.0, 1.7976931348623157e+308, 0.0, 0.0, 0.0, 0.05)",0.0,0.0,0.0,"(0.0, 0.0, 0.0, 0.0, 0.0, 0.0, 0.0, 0.0, 0.0)"
2019/10/07/19:14:02.921857,3722,1570443242,921197121,gyro_link,0.0,0.0,0.956381265923,0.292121334707,"(1.7976931348623157e+308, 0.0, 0.0, 0.0, 1.7976931348623157e+308, 0.0, 0.0, 0.0, 0.05)",0.0,0.0,0.0010471975512,"(1.7976931348623157e+308, 0.0, 0.0, 0.0, 1.7976931348623157e+308, 0.0, 0.0, 0.0, 0.05)",0.0,0.0,0.0,"(0.0, 0.0, 0.0, 0.0, 0.0, 0.0, 0.0, 0.0, 0.0)"
2019/10/07/19:14:02.981551,3723,1570443242,981233448,gyro_link,0.0,0.0,0.956202640726,0.292705500237,"(1.7976931348623157e+308, 0.0, 0.0, 0.0, 1.7976931348623157e+308, 0.0, 0.0, 0.0, 0.05)",0.0,0.0,-0.0221656815003,"(1.7976931348623157e+308, 0.0, 0.0, 0.0, 1.7976931348623157e+308, 0.0, 0.0, 0.0, 0.05)",0.0,0.0,0.0,"(0.0, 0.0, 0.0, 0.0, 0.0, 0.0, 0.0, 0.0, 0.0)"
2019/10/07/19:14:03.041470,3724,1570443243,41034909,gyro_link,0.0,0.0,0.956355769886,0.292204793604,"(1.7976931348623157e+308, 0.0, 0.0, 0.0, 1.7976931348623157e+308, 0.0, 0.0, 0.0, 0.05)",0.0,0.0,0.0132645023152,"(1.7976931348623157e+308, 0.0, 0.0, 0.0, 1.7976931348623157e+308, 0.0, 0.0, 0.0, 0.05)",0.0,0.0,0.0,"(0.0, 0.0, 0.0, 0.0, 0.0, 0.0, 0.0, 0.0, 0.0)"
2019/10/07/19:14:03.101512,3725,1570443243,101133085,gyro_link,0.0,0.0,0.956100408978,0.293039260085,"(1.7976931348623157e+308, 0.0, 0.0, 0.0, 1.7976931348623157e+308, 0.0, 0.0, 0.0, 0.05)",0.0,0.0,-0.0363028484415,"(1.7976931348623157e+308, 0.0, 0.0, 0.0, 1.7976931348623157e+308, 0.0, 0.0, 0.0, 0.05)",0.0,0.0,0.0,"(0.0, 0.0, 0.0, 0.0, 0.0, 0.0, 0.0, 0.0, 0.0)"
2019/10/07/19:14:03.161307,3726,1570443243,160899090,gyro_link,0.0,0.0,0.956100408978,0.293039260085,"(1.7976931348623157e+308, 0.0, 0.0, 0.0, 1.7976931348623157e+308, 0.0, 0.0, 0.0, 0.05)",0.0,0.0,-0.0129154364648,"(1.7976931348623157e+308, 0.0, 0.0, 0.0, 1.7976931348623157e+308, 0.0, 0.0, 0.0, 0.05)",0.0,0.0,0.0,"(0.0, 0.0, 0.0, 0.0, 0.0, 0.0, 0.0, 0.0, 0.0)"
2019/10/07/19:14:03.219940,3727,1570443243,219524332,gyro_link,0.0,0.0,0.955998060733,0.293372984228,"(1.7976931348623157e+308, 0.0, 0.0, 0.0, 1.7976931348623157e+308, 0.0, 0.0, 0.0, 0.05)",0.0,0.0,0.00575958653158,"(1.7976931348623157e+308, 0.0, 0.0, 0.0, 1.7976931348623157e+308, 0.0, 0.0, 0.0, 0.05)",0.0,0.0,0.0,"(0.0, 0.0, 0.0, 0.0, 0.0, 0.0, 0.0, 0.0, 0.0)"
2019/10/07/19:14:03.277977,3728,1570443243,277520740,gyro_link,0.0,0.0,0.956023658715,0.293289556542,"(1.7976931348623157e+308, 0.0, 0.0, 0.0, 1.7976931348623157e+308, 0.0, 0.0, 0.0, 0.05)",0.0,0.0,-0.0246091424531,"(1.7976931348623157e+308, 0.0, 0.0, 0.0, 1.7976931348623157e+308, 0.0, 0.0, 0.0, 0.05)",0.0,0.0,0.0,"(0.0, 0.0, 0.0, 0.0, 0.0, 0.0, 0.0, 0.0, 0.0)"
2019/10/07/19:14:03.299828,3729,1570443243,299319324,gyro_link,0.0,0.0,0.955946842928,0.293539832896,"(1.7976931348623157e+308, 0.0, 0.0, 0.0, 1.7976931348623157e+308, 0.0, 0.0, 0.0, 0.05)",0.0,0.0,-0.0277507351067,"(1.7976931348623157e+308, 0.0, 0.0, 0.0, 1.7976931348623157e+308, 0.0, 0.0, 0.0, 0.05)",0.0,0.0,0.0,"(0.0, 0.0, 0.0, 0.0, 0.0, 0.0, 0.0, 0.0, 0.0)"
2019/10/07/19:14:03.320724,3730,1570443243,320236179,gyro_link,0.0,0.0,0.955921223105,0.293623253878,"(1.7976931348623157e+308, 0.0, 0.0, 0.0, 1.7976931348623157e+308, 0.0, 0.0, 0.0, 0.05)",0.0,0.0,-0.00628318530718,"(1.7976931348623157e+308, 0.0, 0.0, 0.0, 1.7976931348623157e+308, 0.0, 0.0, 0.0, 0.05)",0.0,0.0,0.0,"(0.0, 0.0, 0.0, 0.0, 0.0, 0.0, 0.0, 0.0, 0.0)"
2019/10/07/19:14:03.379890,3731,1570443243,379234668,gyro_link,0.0,0.0,0.956202640726,0.292705500237,"(1.7976931348623157e+308, 0.0, 0.0, 0.0, 1.7976931348623157e+308, 0.0, 0.0, 0.0, 0.05)",0.0,0.0,0.0338593874887,"(1.7976931348623157e+308, 0.0, 0.0, 0.0, 1.7976931348623157e+308, 0.0, 0.0, 0.0, 0.05)",0.0,0.0,0.0,"(0.0, 0.0, 0.0, 0.0, 0.0, 0.0, 0.0, 0.0, 0.0)"
2019/10/07/19:14:03.437562,3732,1570443243,437137753,gyro_link,0.0,0.0,0.95597245547,0.293456409679,"(1.7976931348623157e+308, 0.0, 0.0, 0.0, 1.7976931348623157e+308, 0.0, 0.0, 0.0, 0.05)",0.0,0.0,-0.0345575191895,"(1.7976931348623157e+308, 0.0, 0.0, 0.0, 1.7976931348623157e+308, 0.0, 0.0, 0.0, 0.05)",0.0,0.0,0.0,"(0.0, 0.0, 0.0, 0.0, 0.0, 0.0, 0.0, 0.0, 0.0)"
2019/10/07/19:14:03.459506,3733,1570443243,459124563,gyro_link,0.0,0.0,0.955946842928,0.293539832896,"(1.7976931348623157e+308, 0.0, 0.0, 0.0, 1.7976931348623157e+308, 0.0, 0.0, 0.0, 0.05)",0.0,0.0,0.0013962634016,"(1.7976931348623157e+308, 0.0, 0.0, 0.0, 1.7976931348623157e+308, 0.0, 0.0, 0.0, 0.05)",0.0,0.0,0.0,"(0.0, 0.0, 0.0, 0.0, 0.0, 0.0, 0.0, 0.0, 0.0)"
2019/10/07/19:14:03.517510,3734,1570443243,517101527,gyro_link,0.0,0.0,0.95586996162,0.293790089132,"(1.7976931348623157e+308, 0.0, 0.0, 0.0, 1.7976931348623157e+308, 0.0, 0.0, 0.0, 0.05)",0.0,0.0,-0.0176278254451,"(1.7976931348623157e+308, 0.0, 0.0, 0.0, 1.7976931348623157e+308, 0.0, 0.0, 0.0, 0.05)",0.0,0.0,0.0,"(0.0, 0.0, 0.0, 0.0, 0.0, 0.0, 0.0, 0.0, 0.0)"
2019/10/07/19:14:03.539485,3735,1570443243,539138466,gyro_link,0.0,0.0,0.95586996162,0.293790089132,"(1.7976931348623157e+308, 0.0, 0.0, 0.0, 1.7976931348623157e+308, 0.0, 0.0, 0.0, 0.05)",0.0,0.0,0.0165806278939,"(1.7976931348623157e+308, 0.0, 0.0, 0.0, 1.7976931348623157e+308, 0.0, 0.0, 0.0, 0.05)",0.0,0.0,0.0,"(0.0, 0.0, 0.0, 0.0, 0.0, 0.0, 0.0, 0.0, 0.0)"
2019/10/07/19:14:03.599268,3736,1570443243,598923109,gyro_link,0.0,0.0,0.956125977838,0.292955823469,"(1.7976931348623157e+308, 0.0, 0.0, 0.0, 1.7976931348623157e+308, 0.0, 0.0, 0.0, 0.05)",0.0,0.0,0.0111701072128,"(1.7976931348623157e+308, 0.0, 0.0, 0.0, 1.7976931348623157e+308, 0.0, 0.0, 0.0, 0.05)",0.0,0.0,0.0,"(0.0, 0.0, 0.0, 0.0, 0.0, 0.0, 0.0, 0.0, 0.0)"
2019/10/07/19:14:03.657095,3737,1570443243,656647727,gyro_link,0.0,0.0,0.955844319959,0.293873503404,"(1.7976931348623157e+308, 0.0, 0.0, 0.0, 1.7976931348623157e+308, 0.0, 0.0, 0.0, 0.05)",0.0,0.0,-0.0109955742876,"(1.7976931348623157e+308, 0.0, 0.0, 0.0, 1.7976931348623157e+308, 0.0, 0.0, 0.0, 0.05)",0.0,0.0,0.0,"(0.0, 0.0, 0.0, 0.0, 0.0, 0.0, 0.0, 0.0, 0.0)"
2019/10/07/19:14:03.679575,3738,1570443243,679007945,gyro_link,0.0,0.0,0.95586996162,0.293790089132,"(1.7976931348623157e+308, 0.0, 0.0, 0.0, 1.7976931348623157e+308, 0.0, 0.0, 0.0, 0.05)",0.0,0.0,0.0183259571459,"(1.7976931348623157e+308, 0.0, 0.0, 0.0, 1.7976931348623157e+308, 0.0, 0.0, 0.0, 0.05)",0.0,0.0,0.0,"(0.0, 0.0, 0.0, 0.0, 0.0, 0.0, 0.0, 0.0, 0.0)"
2019/10/07/19:14:03.739399,3739,1570443243,738831132,gyro_link,0.0,0.0,0.955895596002,0.293706672624,"(1.7976931348623157e+308, 0.0, 0.0, 0.0, 1.7976931348623157e+308, 0.0, 0.0, 0.0, 0.05)",0.0,0.0,-0.0300196631343,"(1.7976931348623157e+308, 0.0, 0.0, 0.0, 1.7976931348623157e+308, 0.0, 0.0, 0.0, 0.05)",0.0,0.0,0.0,"(0.0, 0.0, 0.0, 0.0, 0.0, 0.0, 0.0, 0.0, 0.0)"
2019/10/07/19:14:03.797317,3740,1570443243,796373412,gyro_link,0.0,0.0,0.95586996162,0.293790089132,"(1.7976931348623157e+308, 0.0, 0.0, 0.0, 1.7976931348623157e+308, 0.0, 0.0, 0.0, 0.05)",0.0,0.0,0.0153588974176,"(1.7976931348623157e+308, 0.0, 0.0, 0.0, 1.7976931348623157e+308, 0.0, 0.0, 0.0, 0.05)",0.0,0.0,0.0,"(0.0, 0.0, 0.0, 0.0, 0.0, 0.0, 0.0, 0.0, 0.0)"
2019/10/07/19:14:03.818919,3741,1570443243,818398252,gyro_link,0.0,0.0,0.955895596002,0.293706672624,"(1.7976931348623157e+308, 0.0, 0.0, 0.0, 1.7976931348623157e+308, 0.0, 0.0, 0.0, 0.05)",0.0,0.0,0.0111701072128,"(1.7976931348623157e+308, 0.0, 0.0, 0.0, 1.7976931348623157e+308, 0.0, 0.0, 0.0, 0.05)",0.0,0.0,0.0,"(0.0, 0.0, 0.0, 0.0, 0.0, 0.0, 0.0, 0.0, 0.0)"
2019/10/07/19:14:03.877090,3742,1570443243,876484261,gyro_link,0.0,0.0,0.955793014798,0.294040325232,"(1.7976931348623157e+308, 0.0, 0.0, 0.0, 1.7976931348623157e+308, 0.0, 0.0, 0.0, 0.05)",0.0,0.0,0.0164060949687,"(1.7976931348623157e+308, 0.0, 0.0, 0.0, 1.7976931348623157e+308, 0.0, 0.0, 0.0, 0.05)",0.0,0.0,0.0,"(0.0, 0.0, 0.0, 0.0, 0.0, 0.0, 0.0, 0.0, 0.0)"
2019/10/07/19:14:03.898901,3743,1570443243,898506123,gyro_link,0.0,0.0,0.955895596002,0.293706672624,"(1.7976931348623157e+308, 0.0, 0.0, 0.0, 1.7976931348623157e+308, 0.0, 0.0, 0.0, 0.05)",0.0,0.0,0.0424115008235,"(1.7976931348623157e+308, 0.0, 0.0, 0.0, 1.7976931348623157e+308, 0.0, 0.0, 0.0, 0.05)",0.0,0.0,0.0,"(0.0, 0.0, 0.0, 0.0, 0.0, 0.0, 0.0, 0.0, 0.0)"
2019/10/07/19:14:03.958673,3744,1570443243,958114469,gyro_link,0.0,0.0,0.95597245547,0.293456409679,"(1.7976931348623157e+308, 0.0, 0.0, 0.0, 1.7976931348623157e+308, 0.0, 0.0, 0.0, 0.05)",0.0,0.0,-0.0368264472171,"(1.7976931348623157e+308, 0.0, 0.0, 0.0, 1.7976931348623157e+308, 0.0, 0.0, 0.0, 0.05)",0.0,0.0,0.0,"(0.0, 0.0, 0.0, 0.0, 0.0, 0.0, 0.0, 0.0, 0.0)"
2019/10/07/19:14:04.018653,3745,1570443244,18238826,gyro_link,0.0,0.0,0.95586996162,0.293790089132,"(1.7976931348623157e+308, 0.0, 0.0, 0.0, 1.7976931348623157e+308, 0.0, 0.0, 0.0, 0.05)",0.0,0.0,0.0258308729295,"(1.7976931348623157e+308, 0.0, 0.0, 0.0, 1.7976931348623157e+308, 0.0, 0.0, 0.0, 0.05)",0.0,0.0,0.0,"(0.0, 0.0, 0.0, 0.0, 0.0, 0.0, 0.0, 0.0, 0.0)"
2019/10/07/19:14:04.078506,3746,1570443244,77971037,gyro_link,0.0,0.0,0.955793014798,0.294040325232,"(1.7976931348623157e+308, 0.0, 0.0, 0.0, 1.7976931348623157e+308, 0.0, 0.0, 0.0, 0.05)",0.0,0.0,-0.0319395253115,"(1.7976931348623157e+308, 0.0, 0.0, 0.0, 1.7976931348623157e+308, 0.0, 0.0, 0.0, 0.05)",0.0,0.0,0.0,"(0.0, 0.0, 0.0, 0.0, 0.0, 0.0, 0.0, 0.0, 0.0)"
2019/10/07/19:14:04.138598,3747,1570443244,137854349,gyro_link,0.0,0.0,0.955818671018,0.293956915437,"(1.7976931348623157e+308, 0.0, 0.0, 0.0, 1.7976931348623157e+308, 0.0, 0.0, 0.0, 0.05)",0.0,0.0,0.0134390352404,"(1.7976931348623157e+308, 0.0, 0.0, 0.0, 1.7976931348623157e+308, 0.0, 0.0, 0.0, 0.05)",0.0,0.0,0.0,"(0.0, 0.0, 0.0, 0.0, 0.0, 0.0, 0.0, 0.0, 0.0)"
2019/10/07/19:14:04.198585,3748,1570443244,197828466,gyro_link,0.0,0.0,0.955613217466,0.294624131062,"(1.7976931348623157e+308, 0.0, 0.0, 0.0, 1.7976931348623157e+308, 0.0, 0.0, 0.0, 0.05)",0.0,0.0,-0.0335103216383,"(1.7976931348623157e+308, 0.0, 0.0, 0.0, 1.7976931348623157e+308, 0.0, 0.0, 0.0, 0.05)",0.0,0.0,0.0,"(0.0, 0.0, 0.0, 0.0, 0.0, 0.0, 0.0, 0.0, 0.0)"
2019/10/07/19:14:04.258056,3749,1570443244,257642598,gyro_link,0.0,0.0,0.955690317134,0.294373942013,"(1.7976931348623157e+308, 0.0, 0.0, 0.0, 1.7976931348623157e+308, 0.0, 0.0, 0.0, 0.05)",0.0,0.0,0.0012217304764,"(1.7976931348623157e+308, 0.0, 0.0, 0.0, 1.7976931348623157e+308, 0.0, 0.0, 0.0, 0.05)",0.0,0.0,0.0,"(0.0, 0.0, 0.0, 0.0, 0.0, 0.0, 0.0, 0.0, 0.0)"
2019/10/07/19:14:04.317979,3750,1570443244,317501044,gyro_link,0.0,0.0,0.955484572474,0.295041067928,"(1.7976931348623157e+308, 0.0, 0.0, 0.0, 1.7976931348623157e+308, 0.0, 0.0, 0.0, 0.05)",0.0,0.0,-0.00628318530718,"(1.7976931348623157e+308, 0.0, 0.0, 0.0, 1.7976931348623157e+308, 0.0, 0.0, 0.0, 0.05)",0.0,0.0,0.0,"(0.0, 0.0, 0.0, 0.0, 0.0, 0.0, 0.0, 0.0, 0.0)"
2019/10/07/19:14:04.378521,3751,1570443244,377527764,gyro_link,0.0,0.0,0.955484572474,0.295041067928,"(1.7976931348623157e+308, 0.0, 0.0, 0.0, 1.7976931348623157e+308, 0.0, 0.0, 0.0, 0.05)",0.0,0.0,-0.0289724655831,"(1.7976931348623157e+308, 0.0, 0.0, 0.0, 1.7976931348623157e+308, 0.0, 0.0, 0.0, 0.05)",0.0,0.0,0.0,"(0.0, 0.0, 0.0, 0.0, 0.0, 0.0, 0.0, 0.0, 0.0)"
2019/10/07/19:14:04.438021,3752,1570443244,437254587,gyro_link,0.0,0.0,0.955329958363,0.295541318014,"(1.7976931348623157e+308, 0.0, 0.0, 0.0, 1.7976931348623157e+308, 0.0, 0.0, 0.0, 0.05)",0.0,0.0,0.00907571211037,"(1.7976931348623157e+308, 0.0, 0.0, 0.0, 1.7976931348623157e+308, 0.0, 0.0, 0.0, 0.05)",0.0,0.0,0.0,"(0.0, 0.0, 0.0, 0.0, 0.0, 0.0, 0.0, 0.0, 0.0)"
2019/10/07/19:14:04.497903,3753,1570443244,497144535,gyro_link,0.0,0.0,0.955484572474,0.295041067928,"(1.7976931348623157e+308, 0.0, 0.0, 0.0, 1.7976931348623157e+308, 0.0, 0.0, 0.0, 0.05)",0.0,0.0,-0.0235619449019,"(1.7976931348623157e+308, 0.0, 0.0, 0.0, 1.7976931348623157e+308, 0.0, 0.0, 0.0, 0.05)",0.0,0.0,0.0,"(0.0, 0.0, 0.0, 0.0, 0.0, 0.0, 0.0, 0.0, 0.0)"
2019/10/07/19:14:04.556822,3754,1570443244,556092546,gyro_link,0.0,0.0,0.955381525503,0.295374576981,"(1.7976931348623157e+308, 0.0, 0.0, 0.0, 1.7976931348623157e+308, 0.0, 0.0, 0.0, 0.05)",0.0,0.0,0.0193731546971,"(1.7976931348623157e+308, 0.0, 0.0, 0.0, 1.7976931348623157e+308, 0.0, 0.0, 0.0, 0.05)",0.0,0.0,0.0,"(0.0, 0.0, 0.0, 0.0, 0.0, 0.0, 0.0, 0.0, 0.0)"
2019/10/07/19:14:04.577343,3755,1570443244,576925175,gyro_link,0.0,0.0,0.955458821645,0.295124448563,"(1.7976931348623157e+308, 0.0, 0.0, 0.0, 1.7976931348623157e+308, 0.0, 0.0, 0.0, 0.05)",0.0,0.0,0.00942477796077,"(1.7976931348623157e+308, 0.0, 0.0, 0.0, 1.7976931348623157e+308, 0.0, 0.0, 0.0, 0.05)",0.0,0.0,0.0,"(0.0, 0.0, 0.0, 0.0, 0.0, 0.0, 0.0, 0.0, 0.0)"
2019/10/07/19:14:04.636508,3756,1570443244,636030814,gyro_link,0.0,0.0,0.955252553089,0.295791412681,"(1.7976931348623157e+308, 0.0, 0.0, 0.0, 1.7976931348623157e+308, 0.0, 0.0, 0.0, 0.05)",0.0,0.0,-0.0253072741539,"(1.7976931348623157e+308, 0.0, 0.0, 0.0, 1.7976931348623157e+308, 0.0, 0.0, 0.0, 0.05)",0.0,0.0,0.0,"(0.0, 0.0, 0.0, 0.0, 0.0, 0.0, 0.0, 0.0, 0.0)"
2019/10/07/19:14:04.694229,3757,1570443244,693684480,gyro_link,0.0,0.0,0.955381525503,0.295374576981,"(1.7976931348623157e+308, 0.0, 0.0, 0.0, 1.7976931348623157e+308, 0.0, 0.0, 0.0, 0.05)",0.0,0.0,-0.00907571211037,"(1.7976931348623157e+308, 0.0, 0.0, 0.0, 1.7976931348623157e+308, 0.0, 0.0, 0.0, 0.05)",0.0,0.0,0.0,"(0.0, 0.0, 0.0, 0.0, 0.0, 0.0, 0.0, 0.0, 0.0)"
2019/10/07/19:14:04.716257,3758,1570443244,715837527,gyro_link,0.0,0.0,0.95530416388,0.295624685155,"(1.7976931348623157e+308, 0.0, 0.0, 0.0, 1.7976931348623157e+308, 0.0, 0.0, 0.0, 0.05)",0.0,0.0,-0.0368264472171,"(1.7976931348623157e+308, 0.0, 0.0, 0.0, 1.7976931348623157e+308, 0.0, 0.0, 0.0, 0.05)",0.0,0.0,0.0,"(0.0, 0.0, 0.0, 0.0, 0.0, 0.0, 0.0, 0.0, 0.0)"
2019/10/07/19:14:04.773963,3759,1570443244,773462364,gyro_link,0.0,0.0,0.955329958363,0.295541318014,"(1.7976931348623157e+308, 0.0, 0.0, 0.0, 1.7976931348623157e+308, 0.0, 0.0, 0.0, 0.05)",0.0,0.0,0.0268780704807,"(1.7976931348623157e+308, 0.0, 0.0, 0.0, 1.7976931348623157e+308, 0.0, 0.0, 0.0, 0.05)",0.0,0.0,0.0,"(0.0, 0.0, 0.0, 0.0, 0.0, 0.0, 0.0, 0.0, 0.0)"
2019/10/07/19:14:04.795828,3760,1570443244,795376630,gyro_link,0.0,0.0,0.955355745571,0.295457948623,"(1.7976931348623157e+308, 0.0, 0.0, 0.0, 1.7976931348623157e+308, 0.0, 0.0, 0.0, 0.05)",0.0,0.0,0.00296705972839,"(1.7976931348623157e+308, 0.0, 0.0, 0.0, 1.7976931348623157e+308, 0.0, 0.0, 0.0, 0.05)",0.0,0.0,0.0,"(0.0, 0.0, 0.0, 0.0, 0.0, 0.0, 0.0, 0.0, 0.0)"
2019/10/07/19:14:04.853945,3761,1570443244,853434392,gyro_link,0.0,0.0,0.955097546131,0.296291541179,"(1.7976931348623157e+308, 0.0, 0.0, 0.0, 1.7976931348623157e+308, 0.0, 0.0, 0.0, 0.05)",0.0,0.0,0.00296705972839,"(1.7976931348623157e+308, 0.0, 0.0, 0.0, 1.7976931348623157e+308, 0.0, 0.0, 0.0, 0.05)",0.0,0.0,0.0,"(0.0, 0.0, 0.0, 0.0, 0.0, 0.0, 0.0, 0.0, 0.0)"
2019/10/07/19:14:04.875752,3762,1570443244,875400132,gyro_link,0.0,0.0,0.955149244213,0.296124840699,"(1.7976931348623157e+308, 0.0, 0.0, 0.0, 1.7976931348623157e+308, 0.0, 0.0, 0.0, 0.05)",0.0,0.0,0.0260054058547,"(1.7976931348623157e+308, 0.0, 0.0, 0.0, 1.7976931348623157e+308, 0.0, 0.0, 0.0, 0.05)",0.0,0.0,0.0,"(0.0, 0.0, 0.0, 0.0, 0.0, 0.0, 0.0, 0.0, 0.0)"
2019/10/07/19:14:04.934040,3763,1570443244,933334932,gyro_link,0.0,0.0,0.955226736782,0.295874773066,"(1.7976931348623157e+308, 0.0, 0.0, 0.0, 1.7976931348623157e+308, 0.0, 0.0, 0.0, 0.05)",0.0,0.0,-0.0193731546971,"(1.7976931348623157e+308, 0.0, 0.0, 0.0, 1.7976931348623157e+308, 0.0, 0.0, 0.0, 0.05)",0.0,0.0,0.0,"(0.0, 0.0, 0.0, 0.0, 0.0, 0.0, 0.0, 0.0, 0.0)"
2019/10/07/19:14:04.956043,3764,1570443244,955377775,gyro_link,0.0,0.0,0.9552009132,0.295958131198,"(1.7976931348623157e+308, 0.0, 0.0, 0.0, 1.7976931348623157e+308, 0.0, 0.0, 0.0, 0.05)",0.0,0.0,-0.00331612557879,"(1.7976931348623157e+308, 0.0, 0.0, 0.0, 1.7976931348623157e+308, 0.0, 0.0, 0.0, 0.05)",0.0,0.0,0.0,"(0.0, 0.0, 0.0, 0.0, 0.0, 0.0, 0.0, 0.0, 0.0)"
2019/10/07/19:14:05.015737,3765,1570443245,15323042,gyro_link,0.0,0.0,0.9552009132,0.295958131198,"(1.7976931348623157e+308, 0.0, 0.0, 0.0, 1.7976931348623157e+308, 0.0, 0.0, 0.0, 0.05)",0.0,0.0,-0.0345575191895,"(1.7976931348623157e+308, 0.0, 0.0, 0.0, 1.7976931348623157e+308, 0.0, 0.0, 0.0, 0.05)",0.0,0.0,0.0,"(0.0, 0.0, 0.0, 0.0, 0.0, 0.0, 0.0, 0.0, 0.0)"
2019/10/07/19:14:05.073537,3766,1570443245,72978437,gyro_link,0.0,0.0,0.954838619343,0.297124908097,"(1.7976931348623157e+308, 0.0, 0.0, 0.0, 1.7976931348623157e+308, 0.0, 0.0, 0.0, 0.05)",0.0,0.0,0.010471975512,"(1.7976931348623157e+308, 0.0, 0.0, 0.0, 1.7976931348623157e+308, 0.0, 0.0, 0.0, 0.05)",0.0,0.0,0.0,"(0.0, 0.0, 0.0, 0.0, 0.0, 0.0, 0.0, 0.0, 0.0)"
2019/10/07/19:14:05.095449,3767,1570443245,94889107,gyro_link,0.0,0.0,0.954916373739,0.296874921752,"(1.7976931348623157e+308, 0.0, 0.0, 0.0, 1.7976931348623157e+308, 0.0, 0.0, 0.0, 0.05)",0.0,0.0,0.0301941960595,"(1.7976931348623157e+308, 0.0, 0.0, 0.0, 1.7976931348623157e+308, 0.0, 0.0, 0.0, 0.05)",0.0,0.0,0.0,"(0.0, 0.0, 0.0, 0.0, 0.0, 0.0, 0.0, 0.0, 0.0)"
2019/10/07/19:14:05.155651,3768,1570443245,155034377,gyro_link,0.0,0.0,0.954890462879,0.296958252795,"(1.7976931348623157e+308, 0.0, 0.0, 0.0, 1.7976931348623157e+308, 0.0, 0.0, 0.0, 0.05)",0.0,0.0,-0.0195476876223,"(1.7976931348623157e+308, 0.0, 0.0, 0.0, 1.7976931348623157e+308, 0.0, 0.0, 0.0, 0.05)",0.0,0.0,0.0,"(0.0, 0.0, 0.0, 0.0, 0.0, 0.0, 0.0, 0.0, 0.0)"
2019/10/07/19:14:05.215579,3769,1570443245,215033403,gyro_link,0.0,0.0,0.954864544747,0.297041581577,"(1.7976931348623157e+308, 0.0, 0.0, 0.0, 1.7976931348623157e+308, 0.0, 0.0, 0.0, 0.05)",0.0,0.0,-0.0171042266695,"(1.7976931348623157e+308, 0.0, 0.0, 0.0, 1.7976931348623157e+308, 0.0, 0.0, 0.0, 0.05)",0.0,0.0,0.0,"(0.0, 0.0, 0.0, 0.0, 0.0, 0.0, 0.0, 0.0, 0.0)"
2019/10/07/19:14:05.275318,3770,1570443245,274857046,gyro_link,0.0,0.0,0.954448865814,0.298374534012,"(1.7976931348623157e+308, 0.0, 0.0, 0.0, 1.7976931348623157e+308, 0.0, 0.0, 0.0, 0.05)",0.0,0.0,-0.0214675497995,"(1.7976931348623157e+308, 0.0, 0.0, 0.0, 1.7976931348623157e+308, 0.0, 0.0, 0.0, 0.05)",0.0,0.0,0.0,"(0.0, 0.0, 0.0, 0.0, 0.0, 0.0, 0.0, 0.0, 0.0)"
2019/10/07/19:14:05.335514,3771,1570443245,334755849,gyro_link,0.0,0.0,0.954474900269,0.2982912415,"(1.7976931348623157e+308, 0.0, 0.0, 0.0, 1.7976931348623157e+308, 0.0, 0.0, 0.0, 0.05)",0.0,0.0,0.00855211333477,"(1.7976931348623157e+308, 0.0, 0.0, 0.0, 1.7976931348623157e+308, 0.0, 0.0, 0.0, 0.05)",0.0,0.0,0.0,"(0.0, 0.0, 0.0, 0.0, 0.0, 0.0, 0.0, 0.0, 0.0)"
2019/10/07/19:14:05.395460,3772,1570443245,394596058,gyro_link,0.0,0.0,0.954422824089,0.298457824252,"(1.7976931348623157e+308, 0.0, 0.0, 0.0, 1.7976931348623157e+308, 0.0, 0.0, 0.0, 0.05)",0.0,0.0,-0.000349065850399,"(1.7976931348623157e+308, 0.0, 0.0, 0.0, 1.7976931348623157e+308, 0.0, 0.0, 0.0, 0.05)",0.0,0.0,0.0,"(0.0, 0.0, 0.0, 0.0, 0.0, 0.0, 0.0, 0.0, 0.0)"
2019/10/07/19:14:05.454887,3773,1570443245,454175365,gyro_link,0.0,0.0,0.954344655307,0.298707681332,"(1.7976931348623157e+308, 0.0, 0.0, 0.0, 1.7976931348623157e+308, 0.0, 0.0, 0.0, 0.05)",0.0,0.0,-0.0118682389136,"(1.7976931348623157e+308, 0.0, 0.0, 0.0, 1.7976931348623157e+308, 0.0, 0.0, 0.0, 0.05)",0.0,0.0,0.0,"(0.0, 0.0, 0.0, 0.0, 0.0, 0.0, 0.0, 0.0, 0.0)"
2019/10/07/19:14:05.515091,3774,1570443245,514278990,gyro_link,0.0,0.0,0.954448865814,0.298374534012,"(1.7976931348623157e+308, 0.0, 0.0, 0.0, 1.7976931348623157e+308, 0.0, 0.0, 0.0, 0.05)",0.0,0.0,-0.00942477796077,"(1.7976931348623157e+308, 0.0, 0.0, 0.0, 1.7976931348623157e+308, 0.0, 0.0, 0.0, 0.05)",0.0,0.0,0.0,"(0.0, 0.0, 0.0, 0.0, 0.0, 0.0, 0.0, 0.0, 0.0)"
2019/10/07/19:14:05.574757,3775,1570443245,574170127,gyro_link,0.0,0.0,0.954292506446,0.298874241346,"(1.7976931348623157e+308, 0.0, 0.0, 0.0, 1.7976931348623157e+308, 0.0, 0.0, 0.0, 0.05)",0.0,0.0,0.00925024503557,"(1.7976931348623157e+308, 0.0, 0.0, 0.0, 1.7976931348623157e+308, 0.0, 0.0, 0.0, 0.05)",0.0,0.0,0.0,"(0.0, 0.0, 0.0, 0.0, 0.0, 0.0, 0.0, 0.0, 0.0)"
2019/10/07/19:14:05.634851,3776,1570443245,634151977,gyro_link,0.0,0.0,0.954292506446,0.298874241346,"(1.7976931348623157e+308, 0.0, 0.0, 0.0, 1.7976931348623157e+308, 0.0, 0.0, 0.0, 0.05)",0.0,0.0,-0.0160570291183,"(1.7976931348623157e+308, 0.0, 0.0, 0.0, 1.7976931348623157e+308, 0.0, 0.0, 0.0, 0.05)",0.0,0.0,0.0,"(0.0, 0.0, 0.0, 0.0, 0.0, 0.0, 0.0, 0.0, 0.0)"
2019/10/07/19:14:05.693722,3777,1570443245,692897548,gyro_link,0.0,0.0,0.954214228651,0.299124064295,"(1.7976931348623157e+308, 0.0, 0.0, 0.0, 1.7976931348623157e+308, 0.0, 0.0, 0.0, 0.05)",0.0,0.0,0.00855211333477,"(1.7976931348623157e+308, 0.0, 0.0, 0.0, 1.7976931348623157e+308, 0.0, 0.0, 0.0, 0.05)",0.0,0.0,0.0,"(0.0, 0.0, 0.0, 0.0, 0.0, 0.0, 0.0, 0.0, 0.0)"
2019/10/07/19:14:05.751362,3778,1570443245,750888907,gyro_link,0.0,0.0,0.954135885454,0.299373866742,"(1.7976931348623157e+308, 0.0, 0.0, 0.0, 1.7976931348623157e+308, 0.0, 0.0, 0.0, 0.05)",0.0,0.0,-0.00453785605519,"(1.7976931348623157e+308, 0.0, 0.0, 0.0, 1.7976931348623157e+308, 0.0, 0.0, 0.0, 0.05)",0.0,0.0,0.0,"(0.0, 0.0, 0.0, 0.0, 0.0, 0.0, 0.0, 0.0, 0.0)"
2019/10/07/19:14:05.774189,3779,1570443245,773726770,gyro_link,0.0,0.0,0.95416200712,0.299290601539,"(1.7976931348623157e+308, 0.0, 0.0, 0.0, 1.7976931348623157e+308, 0.0, 0.0, 0.0, 0.05)",0.0,0.0,0.013962634016,"(1.7976931348623157e+308, 0.0, 0.0, 0.0, 1.7976931348623157e+308, 0.0, 0.0, 0.0, 0.05)",0.0,0.0,0.0,"(0.0, 0.0, 0.0, 0.0, 0.0, 0.0, 0.0, 0.0, 0.0)"
2019/10/07/19:14:05.833052,3780,1570443245,832733423,gyro_link,0.0,0.0,0.954292506446,0.298874241346,"(1.7976931348623157e+308, 0.0, 0.0, 0.0, 1.7976931348623157e+308, 0.0, 0.0, 0.0, 0.05)",0.0,0.0,0.00349065850399,"(1.7976931348623157e+308, 0.0, 0.0, 0.0, 1.7976931348623157e+308, 0.0, 0.0, 0.0, 0.05)",0.0,0.0,0.0,"(0.0, 0.0, 0.0, 0.0, 0.0, 0.0, 0.0, 0.0, 0.0)"
2019/10/07/19:14:05.891102,3781,1570443245,890371916,gyro_link,0.0,0.0,0.954135885454,0.299373866742,"(1.7976931348623157e+308, 0.0, 0.0, 0.0, 1.7976931348623157e+308, 0.0, 0.0, 0.0, 0.05)",0.0,0.0,-0.00925024503557,"(1.7976931348623157e+308, 0.0, 0.0, 0.0, 1.7976931348623157e+308, 0.0, 0.0, 0.0, 0.05)",0.0,0.0,0.0,"(0.0, 0.0, 0.0, 0.0, 0.0, 0.0, 0.0, 0.0, 0.0)"
2019/10/07/19:14:05.912748,3782,1570443245,912409483,gyro_link,0.0,0.0,0.954109756523,0.299457129666,"(1.7976931348623157e+308, 0.0, 0.0, 0.0, 1.7976931348623157e+308, 0.0, 0.0, 0.0, 0.05)",0.0,0.0,-0.00157079632679,"(1.7976931348623157e+308, 0.0, 0.0, 0.0, 1.7976931348623157e+308, 0.0, 0.0, 0.0, 0.05)",0.0,0.0,0.0,"(0.0, 0.0, 0.0, 0.0, 0.0, 0.0, 0.0, 0.0, 0.0)"
2019/10/07/19:14:05.970974,3783,1570443245,970244398,gyro_link,0.0,0.0,0.954057476862,0.299623648671,"(1.7976931348623157e+308, 0.0, 0.0, 0.0, 1.7976931348623157e+308, 0.0, 0.0, 0.0, 0.05)",0.0,0.0,-0.0120427718388,"(1.7976931348623157e+308, 0.0, 0.0, 0.0, 1.7976931348623157e+308, 0.0, 0.0, 0.0, 0.05)",0.0,0.0,0.0,"(0.0, 0.0, 0.0, 0.0, 0.0, 0.0, 0.0, 0.0, 0.0)"
2019/10/07/19:14:05.992966,3784,1570443245,992348741,gyro_link,0.0,0.0,0.954031326134,0.299706904751,"(1.7976931348623157e+308, 0.0, 0.0, 0.0, 1.7976931348623157e+308, 0.0, 0.0, 0.0, 0.05)",0.0,0.0,0.000872664625997,"(1.7976931348623157e+308, 0.0, 0.0, 0.0, 1.7976931348623157e+308, 0.0, 0.0, 0.0, 0.05)",0.0,0.0,0.0,"(0.0, 0.0, 0.0, 0.0, 0.0, 0.0, 0.0, 0.0, 0.0)"
2019/10/07/19:14:06.050402,3785,1570443246,50138267,gyro_link,0.0,0.0,0.954083620326,0.299540390309,"(1.7976931348623157e+308, 0.0, 0.0, 0.0, 1.7976931348623157e+308, 0.0, 0.0, 0.0, 0.05)",0.0,0.0,-0.00296705972839,"(1.7976931348623157e+308, 0.0, 0.0, 0.0, 1.7976931348623157e+308, 0.0, 0.0, 0.0, 0.05)",0.0,0.0,0.0,"(0.0, 0.0, 0.0, 0.0, 0.0, 0.0, 0.0, 0.0, 0.0)"
2019/10/07/19:14:06.072667,3786,1570443246,72117384,gyro_link,0.0,0.0,0.954057476862,0.299623648671,"(1.7976931348623157e+308, 0.0, 0.0, 0.0, 1.7976931348623157e+308, 0.0, 0.0, 0.0, 0.05)",0.0,0.0,-0.0150098315672,"(1.7976931348623157e+308, 0.0, 0.0, 0.0, 1.7976931348623157e+308, 0.0, 0.0, 0.0, 0.05)",0.0,0.0,0.0,"(0.0, 0.0, 0.0, 0.0, 0.0, 0.0, 0.0, 0.0, 0.0)"
2019/10/07/19:14:06.130656,3787,1570443246,129980761,gyro_link,0.0,0.0,0.95416200712,0.299290601539,"(1.7976931348623157e+308, 0.0, 0.0, 0.0, 1.7976931348623157e+308, 0.0, 0.0, 0.0, 0.05)",0.0,0.0,0.0169296937443,"(1.7976931348623157e+308, 0.0, 0.0, 0.0, 1.7976931348623157e+308, 0.0, 0.0, 0.0, 0.05)",0.0,0.0,0.0,"(0.0, 0.0, 0.0, 0.0, 0.0, 0.0, 0.0, 0.0, 0.0)"
2019/10/07/19:14:06.152211,3788,1570443246,151689640,gyro_link,0.0,0.0,0.954188121518,0.299207334056,"(1.7976931348623157e+308, 0.0, 0.0, 0.0, 1.7976931348623157e+308, 0.0, 0.0, 0.0, 0.05)",0.0,0.0,0.00191986217719,"(1.7976931348623157e+308, 0.0, 0.0, 0.0, 1.7976931348623157e+308, 0.0, 0.0, 0.0, 0.05)",0.0,0.0,0.0,"(0.0, 0.0, 0.0, 0.0, 0.0, 0.0, 0.0, 0.0, 0.0)"
2019/10/07/19:14:06.212339,3789,1570443246,211947033,gyro_link,0.0,0.0,0.954083620326,0.299540390309,"(1.7976931348623157e+308, 0.0, 0.0, 0.0, 1.7976931348623157e+308, 0.0, 0.0, 0.0, 0.05)",0.0,0.0,-0.00506145483078,"(1.7976931348623157e+308, 0.0, 0.0, 0.0, 1.7976931348623157e+308, 0.0, 0.0, 0.0, 0.05)",0.0,0.0,0.0,"(0.0, 0.0, 0.0, 0.0, 0.0, 0.0, 0.0, 0.0, 0.0)"
2019/10/07/19:14:06.270158,3790,1570443246,269629378,gyro_link,0.0,0.0,0.954057476862,0.299623648671,"(1.7976931348623157e+308, 0.0, 0.0, 0.0, 1.7976931348623157e+308, 0.0, 0.0, 0.0, 0.05)",0.0,0.0,-0.0207694180987,"(1.7976931348623157e+308, 0.0, 0.0, 0.0, 1.7976931348623157e+308, 0.0, 0.0, 0.0, 0.05)",0.0,0.0,0.0,"(0.0, 0.0, 0.0, 0.0, 0.0, 0.0, 0.0, 0.0, 0.0)"
2019/10/07/19:14:06.291999,3791,1570443246,291532831,gyro_link,0.0,0.0,0.95400516814,0.299790158549,"(1.7976931348623157e+308, 0.0, 0.0, 0.0, 1.7976931348623157e+308, 0.0, 0.0, 0.0, 0.05)",0.0,0.0,-0.014835298642,"(1.7976931348623157e+308, 0.0, 0.0, 0.0, 1.7976931348623157e+308, 0.0, 0.0, 0.0, 0.05)",0.0,0.0,0.0,"(0.0, 0.0, 0.0, 0.0, 0.0, 0.0, 0.0, 0.0, 0.0)"
2019/10/07/19:14:06.350183,3792,1570443246,349493907,gyro_link,0.0,0.0,0.954031326134,0.299706904751,"(1.7976931348623157e+308, 0.0, 0.0, 0.0, 1.7976931348623157e+308, 0.0, 0.0, 0.0, 0.05)",0.0,0.0,0.00977384381117,"(1.7976931348623157e+308, 0.0, 0.0, 0.0, 1.7976931348623157e+308, 0.0, 0.0, 0.0, 0.05)",0.0,0.0,0.0,"(0.0, 0.0, 0.0, 0.0, 0.0, 0.0, 0.0, 0.0, 0.0)"
2019/10/07/19:14:06.372079,3793,1570443246,371613843,gyro_link,0.0,0.0,0.954083620326,0.299540390309,"(1.7976931348623157e+308, 0.0, 0.0, 0.0, 1.7976931348623157e+308, 0.0, 0.0, 0.0, 0.05)",0.0,0.0,0.0129154364648,"(1.7976931348623157e+308, 0.0, 0.0, 0.0, 1.7976931348623157e+308, 0.0, 0.0, 0.0, 0.05)",0.0,0.0,0.0,"(0.0, 0.0, 0.0, 0.0, 0.0, 0.0, 0.0, 0.0, 0.0)"
2019/10/07/19:14:06.431687,3794,1570443246,431326542,gyro_link,0.0,0.0,0.954057476862,0.299623648671,"(1.7976931348623157e+308, 0.0, 0.0, 0.0, 1.7976931348623157e+308, 0.0, 0.0, 0.0, 0.05)",0.0,0.0,-0.000872664625997,"(1.7976931348623157e+308, 0.0, 0.0, 0.0, 1.7976931348623157e+308, 0.0, 0.0, 0.0, 0.05)",0.0,0.0,0.0,"(0.0, 0.0, 0.0, 0.0, 0.0, 0.0, 0.0, 0.0, 0.0)"
2019/10/07/19:14:06.491820,3795,1570443246,491264993,gyro_link,0.0,0.0,0.953979002881,0.299873410064,"(1.7976931348623157e+308, 0.0, 0.0, 0.0, 1.7976931348623157e+308, 0.0, 0.0, 0.0, 0.05)",0.0,0.0,-0.0307177948351,"(1.7976931348623157e+308, 0.0, 0.0, 0.0, 1.7976931348623157e+308, 0.0, 0.0, 0.0, 0.05)",0.0,0.0,0.0,"(0.0, 0.0, 0.0, 0.0, 0.0, 0.0, 0.0, 0.0, 0.0)"
2019/10/07/19:14:06.551934,3796,1570443246,551286754,gyro_link,0.0,0.0,0.95400516814,0.299790158549,"(1.7976931348623157e+308, 0.0, 0.0, 0.0, 1.7976931348623157e+308, 0.0, 0.0, 0.0, 0.05)",0.0,0.0,0.0242600766027,"(1.7976931348623157e+308, 0.0, 0.0, 0.0, 1.7976931348623157e+308, 0.0, 0.0, 0.0, 0.05)",0.0,0.0,0.0,"(0.0, 0.0, 0.0, 0.0, 0.0, 0.0, 0.0, 0.0, 0.0)"
2019/10/07/19:14:06.611612,3797,1570443246,611124296,gyro_link,0.0,0.0,0.954057476862,0.299623648671,"(1.7976931348623157e+308, 0.0, 0.0, 0.0, 1.7976931348623157e+308, 0.0, 0.0, 0.0, 0.05)",0.0,0.0,-0.00890117918517,"(1.7976931348623157e+308, 0.0, 0.0, 0.0, 1.7976931348623157e+308, 0.0, 0.0, 0.0, 0.05)",0.0,0.0,0.0,"(0.0, 0.0, 0.0, 0.0, 0.0, 0.0, 0.0, 0.0, 0.0)"
2019/10/07/19:14:06.671638,3798,1570443246,671067840,gyro_link,0.0,0.0,0.954057476862,0.299623648671,"(1.7976931348623157e+308, 0.0, 0.0, 0.0, 1.7976931348623157e+308, 0.0, 0.0, 0.0, 0.05)",0.0,0.0,-0.000872664625997,"(1.7976931348623157e+308, 0.0, 0.0, 0.0, 1.7976931348623157e+308, 0.0, 0.0, 0.0, 0.05)",0.0,0.0,0.0,"(0.0, 0.0, 0.0, 0.0, 0.0, 0.0, 0.0, 0.0, 0.0)"
2019/10/07/19:14:06.731559,3799,1570443246,731015506,gyro_link,0.0,0.0,0.953874269196,0.300206393279,"(1.7976931348623157e+308, 0.0, 0.0, 0.0, 1.7976931348623157e+308, 0.0, 0.0, 0.0, 0.05)",0.0,0.0,0.00279252680319,"(1.7976931348623157e+308, 0.0, 0.0, 0.0, 1.7976931348623157e+308, 0.0, 0.0, 0.0, 0.05)",0.0,0.0,0.0,"(0.0, 0.0, 0.0, 0.0, 0.0, 0.0, 0.0, 0.0, 0.0)"
2019/10/07/19:14:06.791506,3800,1570443246,790989984,gyro_link,0.0,0.0,0.953979002881,0.299873410064,"(1.7976931348623157e+308, 0.0, 0.0, 0.0, 1.7976931348623157e+308, 0.0, 0.0, 0.0, 0.05)",0.0,0.0,-0.00890117918517,"(1.7976931348623157e+308, 0.0, 0.0, 0.0, 1.7976931348623157e+308, 0.0, 0.0, 0.0, 0.05)",0.0,0.0,0.0,"(0.0, 0.0, 0.0, 0.0, 0.0, 0.0, 0.0, 0.0, 0.0)"
2019/10/07/19:14:06.851163,3801,1570443246,850709189,gyro_link,0.0,0.0,0.953926650567,0.300039906241,"(1.7976931348623157e+308, 0.0, 0.0, 0.0, 1.7976931348623157e+308, 0.0, 0.0, 0.0, 0.05)",0.0,0.0,0.00610865238198,"(1.7976931348623157e+308, 0.0, 0.0, 0.0, 1.7976931348623157e+308, 0.0, 0.0, 0.0, 0.05)",0.0,0.0,0.0,"(0.0, 0.0, 0.0, 0.0, 0.0, 0.0, 0.0, 0.0, 0.0)"
2019/10/07/19:14:06.911454,3802,1570443246,911070342,gyro_link,0.0,0.0,0.953690705585,0.300789025864,"(1.7976931348623157e+308, 0.0, 0.0, 0.0, 1.7976931348623157e+308, 0.0, 0.0, 0.0, 0.05)",0.0,0.0,-0.0340339204139,"(1.7976931348623157e+308, 0.0, 0.0, 0.0, 1.7976931348623157e+308, 0.0, 0.0, 0.0, 0.05)",0.0,0.0,0.0,"(0.0, 0.0, 0.0, 0.0, 0.0, 0.0, 0.0, 0.0, 0.0)"
2019/10/07/19:14:06.971052,3803,1570443246,970628160,gyro_link,0.0,0.0,0.953795642658,0.300456106688,"(1.7976931348623157e+308, 0.0, 0.0, 0.0, 1.7976931348623157e+308, 0.0, 0.0, 0.0, 0.05)",0.0,0.0,0.0151843644924,"(1.7976931348623157e+308, 0.0, 0.0, 0.0, 1.7976931348623157e+308, 0.0, 0.0, 0.0, 0.05)",0.0,0.0,0.0,"(0.0, 0.0, 0.0, 0.0, 0.0, 0.0, 0.0, 0.0, 0.0)"
2019/10/07/19:14:07.031035,3804,1570443247,30725764,gyro_link,0.0,0.0,0.953795642658,0.300456106688,"(1.7976931348623157e+308, 0.0, 0.0, 0.0, 1.7976931348623157e+308, 0.0, 0.0, 0.0, 0.05)",0.0,0.0,-0.0205948851735,"(1.7976931348623157e+308, 0.0, 0.0, 0.0, 1.7976931348623157e+308, 0.0, 0.0, 0.0, 0.05)",0.0,0.0,0.0,"(0.0, 0.0, 0.0, 0.0, 0.0, 0.0, 0.0, 0.0, 0.0)"
2019/10/07/19:14:07.090826,3805,1570443247,90176469,gyro_link,0.0,0.0,0.953769419285,0.300539339916,"(1.7976931348623157e+308, 0.0, 0.0, 0.0, 1.7976931348623157e+308, 0.0, 0.0, 0.0, 0.05)",0.0,0.0,-0.0164060949687,"(1.7976931348623157e+308, 0.0, 0.0, 0.0, 1.7976931348623157e+308, 0.0, 0.0, 0.0, 0.05)",0.0,0.0,0.0,"(0.0, 0.0, 0.0, 0.0, 0.0, 0.0, 0.0, 0.0, 0.0)"
2019/10/07/19:14:07.149578,3806,1570443247,149028115,gyro_link,0.0,0.0,0.953638193472,0.30095547171,"(1.7976931348623157e+308, 0.0, 0.0, 0.0, 1.7976931348623157e+308, 0.0, 0.0, 0.0, 0.05)",0.0,0.0,0.00261799387799,"(1.7976931348623157e+308, 0.0, 0.0, 0.0, 1.7976931348623157e+308, 0.0, 0.0, 0.0, 0.05)",0.0,0.0,0.0,"(0.0, 0.0, 0.0, 0.0, 0.0, 0.0, 0.0, 0.0, 0.0)"
2019/10/07/19:14:07.207831,3807,1570443247,207132828,gyro_link,0.0,0.0,0.953690705585,0.300789025864,"(1.7976931348623157e+308, 0.0, 0.0, 0.0, 1.7976931348623157e+308, 0.0, 0.0, 0.0, 0.05)",0.0,0.0,-0.000872664625997,"(1.7976931348623157e+308, 0.0, 0.0, 0.0, 1.7976931348623157e+308, 0.0, 0.0, 0.0, 0.05)",0.0,0.0,0.0,"(0.0, 0.0, 0.0, 0.0, 0.0, 0.0, 0.0, 0.0, 0.0)"
2019/10/07/19:14:07.229403,3808,1570443247,228922890,gyro_link,0.0,0.0,0.953690705585,0.300789025864,"(1.7976931348623157e+308, 0.0, 0.0, 0.0, 1.7976931348623157e+308, 0.0, 0.0, 0.0, 0.05)",0.0,0.0,-0.0013962634016,"(1.7976931348623157e+308, 0.0, 0.0, 0.0, 1.7976931348623157e+308, 0.0, 0.0, 0.0, 0.05)",0.0,0.0,0.0,"(0.0, 0.0, 0.0, 0.0, 0.0, 0.0, 0.0, 0.0, 0.0)"
2019/10/07/19:14:07.287359,3809,1570443247,286982771,gyro_link,0.0,0.0,0.953611926521,0.301038691196,"(1.7976931348623157e+308, 0.0, 0.0, 0.0, 1.7976931348623157e+308, 0.0, 0.0, 0.0, 0.05)",0.0,0.0,-0.0317649923863,"(1.7976931348623157e+308, 0.0, 0.0, 0.0, 1.7976931348623157e+308, 0.0, 0.0, 0.0, 0.05)",0.0,0.0,0.0,"(0.0, 0.0, 0.0, 0.0, 0.0, 0.0, 0.0, 0.0, 0.0)"
2019/10/07/19:14:07.309407,3810,1570443247,308742655,gyro_link,0.0,0.0,0.953533082097,0.301288335895,"(1.7976931348623157e+308, 0.0, 0.0, 0.0, 1.7976931348623157e+308, 0.0, 0.0, 0.0, 0.05)",0.0,0.0,-0.0235619449019,"(1.7976931348623157e+308, 0.0, 0.0, 0.0, 1.7976931348623157e+308, 0.0, 0.0, 0.0, 0.05)",0.0,0.0,0.0,"(0.0, 0.0, 0.0, 0.0, 0.0, 0.0, 0.0, 0.0, 0.0)"
2019/10/07/19:14:07.367226,3811,1570443247,366652501,gyro_link,0.0,0.0,0.953533082097,0.301288335895,"(1.7976931348623157e+308, 0.0, 0.0, 0.0, 1.7976931348623157e+308, 0.0, 0.0, 0.0, 0.05)",0.0,0.0,0.00174532925199,"(1.7976931348623157e+308, 0.0, 0.0, 0.0, 1.7976931348623157e+308, 0.0, 0.0, 0.0, 0.05)",0.0,0.0,0.0,"(0.0, 0.0, 0.0, 0.0, 0.0, 0.0, 0.0, 0.0, 0.0)"
2019/10/07/19:14:07.388981,3812,1570443247,388421177,gyro_link,0.0,0.0,0.953585652308,0.301121908389,"(1.7976931348623157e+308, 0.0, 0.0, 0.0, 1.7976931348623157e+308, 0.0, 0.0, 0.0, 0.05)",0.0,0.0,0.0136135681656,"(1.7976931348623157e+308, 0.0, 0.0, 0.0, 1.7976931348623157e+308, 0.0, 0.0, 0.0, 0.05)",0.0,0.0,0.0,"(0.0, 0.0, 0.0, 0.0, 0.0, 0.0, 0.0, 0.0, 0.0)"
2019/10/07/19:14:07.447320,3813,1570443247,446594051,gyro_link,0.0,0.0,0.953638193472,0.30095547171,"(1.7976931348623157e+308, 0.0, 0.0, 0.0, 1.7976931348623157e+308, 0.0, 0.0, 0.0, 0.05)",0.0,0.0,0.0,"(1.7976931348623157e+308, 0.0, 0.0, 0.0, 1.7976931348623157e+308, 0.0, 0.0, 0.0, 0.05)",0.0,0.0,0.0,"(0.0, 0.0, 0.0, 0.0, 0.0, 0.0, 0.0, 0.0, 0.0)"
2019/10/07/19:14:07.468668,3814,1570443247,468231341,gyro_link,0.0,0.0,0.953611926521,0.301038691196,"(1.7976931348623157e+308, 0.0, 0.0, 0.0, 1.7976931348623157e+308, 0.0, 0.0, 0.0, 0.05)",0.0,0.0,-0.00994837673637,"(1.7976931348623157e+308, 0.0, 0.0, 0.0, 1.7976931348623157e+308, 0.0, 0.0, 0.0, 0.05)",0.0,0.0,0.0,"(0.0, 0.0, 0.0, 0.0, 0.0, 0.0, 0.0, 0.0, 0.0)"
2019/10/07/19:14:07.526886,3815,1570443247,526367017,gyro_link,0.0,0.0,0.953427854537,0.301621163369,"(1.7976931348623157e+308, 0.0, 0.0, 0.0, 1.7976931348623157e+308, 0.0, 0.0, 0.0, 0.05)",0.0,0.0,-0.000349065850399,"(1.7976931348623157e+308, 0.0, 0.0, 0.0, 1.7976931348623157e+308, 0.0, 0.0, 0.0, 0.05)",0.0,0.0,0.0,"(0.0, 0.0, 0.0, 0.0, 0.0, 0.0, 0.0, 0.0, 0.0)"
2019/10/07/19:14:07.549387,3816,1570443247,548374480,gyro_link,0.0,0.0,0.953401529495,0.301704364497,"(1.7976931348623157e+308, 0.0, 0.0, 0.0, 1.7976931348623157e+308, 0.0, 0.0, 0.0, 0.05)",0.0,0.0,-0.00244346095279,"(1.7976931348623157e+308, 0.0, 0.0, 0.0, 1.7976931348623157e+308, 0.0, 0.0, 0.0, 0.05)",0.0,0.0,0.0,"(0.0, 0.0, 0.0, 0.0, 0.0, 0.0, 0.0, 0.0, 0.0)"
2019/10/07/19:14:07.608952,3817,1570443247,608242993,gyro_link,0.0,0.0,0.953427854537,0.301621163369,"(1.7976931348623157e+308, 0.0, 0.0, 0.0, 1.7976931348623157e+308, 0.0, 0.0, 0.0, 0.05)",0.0,0.0,0.00628318530718,"(1.7976931348623157e+308, 0.0, 0.0, 0.0, 1.7976931348623157e+308, 0.0, 0.0, 0.0, 0.05)",0.0,0.0,0.0,"(0.0, 0.0, 0.0, 0.0, 0.0, 0.0, 0.0, 0.0, 0.0)"
2019/10/07/19:14:07.666720,3818,1570443247,666124259,gyro_link,0.0,0.0,0.953401529495,0.301704364497,"(1.7976931348623157e+308, 0.0, 0.0, 0.0, 1.7976931348623157e+308, 0.0, 0.0, 0.0, 0.05)",0.0,0.0,-0.0116937059884,"(1.7976931348623157e+308, 0.0, 0.0, 0.0, 1.7976931348623157e+308, 0.0, 0.0, 0.0, 0.05)",0.0,0.0,0.0,"(0.0, 0.0, 0.0, 0.0, 0.0, 0.0, 0.0, 0.0, 0.0)"
2019/10/07/19:14:07.688801,3819,1570443247,688178522,gyro_link,0.0,0.0,0.953348857629,0.301870759858,"(1.7976931348623157e+308, 0.0, 0.0, 0.0, 1.7976931348623157e+308, 0.0, 0.0, 0.0, 0.05)",0.0,0.0,-0.0246091424531,"(1.7976931348623157e+308, 0.0, 0.0, 0.0, 1.7976931348623157e+308, 0.0, 0.0, 0.0, 0.05)",0.0,0.0,0.0,"(0.0, 0.0, 0.0, 0.0, 0.0, 0.0, 0.0, 0.0, 0.0)"
2019/10/07/19:14:07.748554,3820,1570443247,748004011,gyro_link,0.0,0.0,0.953296156722,0.302037146025,"(1.7976931348623157e+308, 0.0, 0.0, 0.0, 1.7976931348623157e+308, 0.0, 0.0, 0.0, 0.05)",0.0,0.0,0.00471238898038,"(1.7976931348623157e+308, 0.0, 0.0, 0.0, 1.7976931348623157e+308, 0.0, 0.0, 0.0, 0.05)",0.0,0.0,0.0,"(0.0, 0.0, 0.0, 0.0, 0.0, 0.0, 0.0, 0.0, 0.0)"
2019/10/07/19:14:07.808396,3821,1570443247,807637533,gyro_link,0.0,0.0,0.953243426776,0.30220352299,"(1.7976931348623157e+308, 0.0, 0.0, 0.0, 1.7976931348623157e+308, 0.0, 0.0, 0.0, 0.05)",0.0,0.0,-0.00349065850399,"(1.7976931348623157e+308, 0.0, 0.0, 0.0, 1.7976931348623157e+308, 0.0, 0.0, 0.0, 0.05)",0.0,0.0,0.0,"(0.0, 0.0, 0.0, 0.0, 0.0, 0.0, 0.0, 0.0, 0.0)"
2019/10/07/19:14:07.868489,3822,1570443247,867570785,gyro_link,0.0,0.0,0.953137879774,0.3025362493,"(1.7976931348623157e+308, 0.0, 0.0, 0.0, 1.7976931348623157e+308, 0.0, 0.0, 0.0, 0.05)",0.0,0.0,-0.0232128790515,"(1.7976931348623157e+308, 0.0, 0.0, 0.0, 1.7976931348623157e+308, 0.0, 0.0, 0.0, 0.05)",0.0,0.0,0.0,"(0.0, 0.0, 0.0, 0.0, 0.0, 0.0, 0.0, 0.0, 0.0)"
2019/10/07/19:14:07.928104,3823,1570443247,927562913,gyro_link,0.0,0.0,0.95308506272,0.302702598633,"(1.7976931348623157e+308, 0.0, 0.0, 0.0, 1.7976931348623157e+308, 0.0, 0.0, 0.0, 0.05)",0.0,0.0,0.00157079632679,"(1.7976931348623157e+308, 0.0, 0.0, 0.0, 1.7976931348623157e+308, 0.0, 0.0, 0.0, 0.05)",0.0,0.0,0.0,"(0.0, 0.0, 0.0, 0.0, 0.0, 0.0, 0.0, 0.0, 0.0)"
2019/10/07/19:14:07.987699,3824,1570443247,987314044,gyro_link,0.0,0.0,0.95308506272,0.302702598633,"(1.7976931348623157e+308, 0.0, 0.0, 0.0, 1.7976931348623157e+308, 0.0, 0.0, 0.0, 0.05)",0.0,0.0,-0.00767944870878,"(1.7976931348623157e+308, 0.0, 0.0, 0.0, 1.7976931348623157e+308, 0.0, 0.0, 0.0, 0.05)",0.0,0.0,0.0,"(0.0, 0.0, 0.0, 0.0, 0.0, 0.0, 0.0, 0.0, 0.0)"
2019/10/07/19:14:08.047915,3825,1570443248,47301396,gyro_link,0.0,0.0,0.953032216634,0.302868938746,"(1.7976931348623157e+308, 0.0, 0.0, 0.0, 1.7976931348623157e+308, 0.0, 0.0, 0.0, 0.05)",0.0,0.0,-0.0191986217719,"(1.7976931348623157e+308, 0.0, 0.0, 0.0, 1.7976931348623157e+308, 0.0, 0.0, 0.0, 0.05)",0.0,0.0,0.0,"(0.0, 0.0, 0.0, 0.0, 0.0, 0.0, 0.0, 0.0, 0.0)"
2019/10/07/19:14:08.107656,3826,1570443248,107214113,gyro_link,0.0,0.0,0.953032216634,0.302868938746,"(1.7976931348623157e+308, 0.0, 0.0, 0.0, 1.7976931348623157e+308, 0.0, 0.0, 0.0, 0.05)",0.0,0.0,0.0179768912955,"(1.7976931348623157e+308, 0.0, 0.0, 0.0, 1.7976931348623157e+308, 0.0, 0.0, 0.0, 0.05)",0.0,0.0,0.0,"(0.0, 0.0, 0.0, 0.0, 0.0, 0.0, 0.0, 0.0, 0.0)"
2019/10/07/19:14:08.167789,3827,1570443248,167098926,gyro_link,0.0,0.0,0.953005782705,0.302952105343,"(1.7976931348623157e+308, 0.0, 0.0, 0.0, 1.7976931348623157e+308, 0.0, 0.0, 0.0, 0.05)",0.0,0.0,0.00471238898038,"(1.7976931348623157e+308, 0.0, 0.0, 0.0, 1.7976931348623157e+308, 0.0, 0.0, 0.0, 0.05)",0.0,0.0,0.0,"(0.0, 0.0, 0.0, 0.0, 0.0, 0.0, 0.0, 0.0, 0.0)"
2019/10/07/19:14:08.227560,3828,1570443248,227119236,gyro_link,0.0,0.0,0.952952893073,0.303118431615,"(1.7976931348623157e+308, 0.0, 0.0, 0.0, 1.7976931348623157e+308, 0.0, 0.0, 0.0, 0.05)",0.0,0.0,-0.00872664625997,"(1.7976931348623157e+308, 0.0, 0.0, 0.0, 1.7976931348623157e+308, 0.0, 0.0, 0.0, 0.05)",0.0,0.0,0.0,"(0.0, 0.0, 0.0, 0.0, 0.0, 0.0, 0.0, 0.0, 0.0)"
2019/10/07/19:14:08.287534,3829,1570443248,287048905,gyro_link,0.0,0.0,0.952899974412,0.303284748653,"(1.7976931348623157e+308, 0.0, 0.0, 0.0, 1.7976931348623157e+308, 0.0, 0.0, 0.0, 0.05)",0.0,0.0,0.00872664625997,"(1.7976931348623157e+308, 0.0, 0.0, 0.0, 1.7976931348623157e+308, 0.0, 0.0, 0.0, 0.05)",0.0,0.0,0.0,"(0.0, 0.0, 0.0, 0.0, 0.0, 0.0, 0.0, 0.0, 0.0)"
2019/10/07/19:14:08.347348,3830,1570443248,346926191,gyro_link,0.0,0.0,0.952899974412,0.303284748653,"(1.7976931348623157e+308, 0.0, 0.0, 0.0, 1.7976931348623157e+308, 0.0, 0.0, 0.0, 0.05)",0.0,0.0,-0.0207694180987,"(1.7976931348623157e+308, 0.0, 0.0, 0.0, 1.7976931348623157e+308, 0.0, 0.0, 0.0, 0.05)",0.0,0.0,0.0,"(0.0, 0.0, 0.0, 0.0, 0.0, 0.0, 0.0, 0.0, 0.0)"
2019/10/07/19:14:08.406326,3831,1570443248,405914976,gyro_link,0.0,0.0,0.952767550771,0.303700500819,"(1.7976931348623157e+308, 0.0, 0.0, 0.0, 1.7976931348623157e+308, 0.0, 0.0, 0.0, 0.05)",0.0,0.0,-0.0174532925199,"(1.7976931348623157e+308, 0.0, 0.0, 0.0, 1.7976931348623157e+308, 0.0, 0.0, 0.0, 0.05)",0.0,0.0,0.0,"(0.0, 0.0, 0.0, 0.0, 0.0, 0.0, 0.0, 0.0, 0.0)"
2019/10/07/19:14:08.463897,3832,1570443248,463299478,gyro_link,0.0,0.0,0.952741044275,0.303783644317,"(1.7976931348623157e+308, 0.0, 0.0, 0.0, 1.7976931348623157e+308, 0.0, 0.0, 0.0, 0.05)",0.0,0.0,0.0134390352404,"(1.7976931348623157e+308, 0.0, 0.0, 0.0, 1.7976931348623157e+308, 0.0, 0.0, 0.0, 0.05)",0.0,0.0,0.0,"(0.0, 0.0, 0.0, 0.0, 0.0, 0.0, 0.0, 0.0, 0.0)"
2019/10/07/19:14:08.486974,3833,1570443248,486553591,gyro_link,0.0,0.0,0.952794050011,0.303617355009,"(1.7976931348623157e+308, 0.0, 0.0, 0.0, 1.7976931348623157e+308, 0.0, 0.0, 0.0, 0.05)",0.0,0.0,0.00977384381117,"(1.7976931348623157e+308, 0.0, 0.0, 0.0, 1.7976931348623157e+308, 0.0, 0.0, 0.0, 0.05)",0.0,0.0,0.0,"(0.0, 0.0, 0.0, 0.0, 0.0, 0.0, 0.0, 0.0, 0.0)"
2019/10/07/19:14:08.545776,3834,1570443248,545400303,gyro_link,0.0,0.0,0.952741044275,0.303783644317,"(1.7976931348623157e+308, 0.0, 0.0, 0.0, 1.7976931348623157e+308, 0.0, 0.0, 0.0, 0.05)",0.0,0.0,-0.0136135681656,"(1.7976931348623157e+308, 0.0, 0.0, 0.0, 1.7976931348623157e+308, 0.0, 0.0, 0.0, 0.05)",0.0,0.0,0.0,"(0.0, 0.0, 0.0, 0.0, 0.0, 0.0, 0.0, 0.0, 0.0)"
2019/10/07/19:14:08.603564,3835,1570443248,603307323,gyro_link,0.0,0.0,0.952794050011,0.303617355009,"(1.7976931348623157e+308, 0.0, 0.0, 0.0, 1.7976931348623157e+308, 0.0, 0.0, 0.0, 0.05)",0.0,0.0,0.0185004900711,"(1.7976931348623157e+308, 0.0, 0.0, 0.0, 1.7976931348623157e+308, 0.0, 0.0, 0.0, 0.05)",0.0,0.0,0.0,"(0.0, 0.0, 0.0, 0.0, 0.0, 0.0, 0.0, 0.0, 0.0)"
2019/10/07/19:14:08.625845,3836,1570443248,625286729,gyro_link,0.0,0.0,0.952767550771,0.303700500819,"(1.7976931348623157e+308, 0.0, 0.0, 0.0, 1.7976931348623157e+308, 0.0, 0.0, 0.0, 0.05)",0.0,0.0,-0.0127409035396,"(1.7976931348623157e+308, 0.0, 0.0, 0.0, 1.7976931348623157e+308, 0.0, 0.0, 0.0, 0.05)",0.0,0.0,0.0,"(0.0, 0.0, 0.0, 0.0, 0.0, 0.0, 0.0, 0.0, 0.0)"
2019/10/07/19:14:08.683603,3837,1570443248,683193578,gyro_link,0.0,0.0,0.952820541996,0.303534206887,"(1.7976931348623157e+308, 0.0, 0.0, 0.0, 1.7976931348623157e+308, 0.0, 0.0, 0.0, 0.05)",0.0,0.0,0.0279252680319,"(1.7976931348623157e+308, 0.0, 0.0, 0.0, 1.7976931348623157e+308, 0.0, 0.0, 0.0, 0.05)",0.0,0.0,0.0,"(0.0, 0.0, 0.0, 0.0, 0.0, 0.0, 0.0, 0.0, 0.0)"
2019/10/07/19:14:08.705653,3838,1570443248,705381718,gyro_link,0.0,0.0,0.952873504196,0.303367903708,"(1.7976931348623157e+308, 0.0, 0.0, 0.0, 1.7976931348623157e+308, 0.0, 0.0, 0.0, 0.05)",0.0,0.0,0.0169296937443,"(1.7976931348623157e+308, 0.0, 0.0, 0.0, 1.7976931348623157e+308, 0.0, 0.0, 0.0, 0.05)",0.0,0.0,0.0,"(0.0, 0.0, 0.0, 0.0, 0.0, 0.0, 0.0, 0.0, 0.0)"
2019/10/07/19:14:08.765616,3839,1570443248,765079900,gyro_link,0.0,0.0,0.952767550771,0.303700500819,"(1.7976931348623157e+308, 0.0, 0.0, 0.0, 1.7976931348623157e+308, 0.0, 0.0, 0.0, 0.05)",0.0,0.0,-0.00506145483078,"(1.7976931348623157e+308, 0.0, 0.0, 0.0, 1.7976931348623157e+308, 0.0, 0.0, 0.0, 0.05)",0.0,0.0,0.0,"(0.0, 0.0, 0.0, 0.0, 0.0, 0.0, 0.0, 0.0, 0.0)"
2019/10/07/19:14:08.823382,3840,1570443248,822925121,gyro_link,0.0,0.0,0.953058643306,0.302785769843,"(1.7976931348623157e+308, 0.0, 0.0, 0.0, 1.7976931348623157e+308, 0.0, 0.0, 0.0, 0.05)",0.0,0.0,0.00802851455917,"(1.7976931348623157e+308, 0.0, 0.0, 0.0, 1.7976931348623157e+308, 0.0, 0.0, 0.0, 0.05)",0.0,0.0,0.0,"(0.0, 0.0, 0.0, 0.0, 0.0, 0.0, 0.0, 0.0, 0.0)"
2019/10/07/19:14:08.845323,3841,1570443248,844827455,gyro_link,0.0,0.0,0.953032216634,0.302868938746,"(1.7976931348623157e+308, 0.0, 0.0, 0.0, 1.7976931348623157e+308, 0.0, 0.0, 0.0, 0.05)",0.0,0.0,-0.0242600766027,"(1.7976931348623157e+308, 0.0, 0.0, 0.0, 1.7976931348623157e+308, 0.0, 0.0, 0.0, 0.05)",0.0,0.0,0.0,"(0.0, 0.0, 0.0, 0.0, 0.0, 0.0, 0.0, 0.0, 0.0)"
2019/10/07/19:14:08.904772,3842,1570443248,904542935,gyro_link,0.0,0.0,0.952899974412,0.303284748653,"(1.7976931348623157e+308, 0.0, 0.0, 0.0, 1.7976931348623157e+308, 0.0, 0.0, 0.0, 0.05)",0.0,0.0,-0.0141371669412,"(1.7976931348623157e+308, 0.0, 0.0, 0.0, 1.7976931348623157e+308, 0.0, 0.0, 0.0, 0.05)",0.0,0.0,0.0,"(0.0, 0.0, 0.0, 0.0, 0.0, 0.0, 0.0, 0.0, 0.0)"
2019/10/07/19:14:08.963126,3843,1570443248,962683827,gyro_link,0.0,0.0,0.952767550771,0.303700500819,"(1.7976931348623157e+308, 0.0, 0.0, 0.0, 1.7976931348623157e+308, 0.0, 0.0, 0.0, 0.05)",0.0,0.0,-0.0162315620435,"(1.7976931348623157e+308, 0.0, 0.0, 0.0, 1.7976931348623157e+308, 0.0, 0.0, 0.0, 0.05)",0.0,0.0,0.0,"(0.0, 0.0, 0.0, 0.0, 0.0, 0.0, 0.0, 0.0, 0.0)"
2019/10/07/19:14:08.984986,3844,1570443248,984588477,gyro_link,0.0,0.0,0.952741044275,0.303783644317,"(1.7976931348623157e+308, 0.0, 0.0, 0.0, 1.7976931348623157e+308, 0.0, 0.0, 0.0, 0.05)",0.0,0.0,-0.00785398163397,"(1.7976931348623157e+308, 0.0, 0.0, 0.0, 1.7976931348623157e+308, 0.0, 0.0, 0.0, 0.05)",0.0,0.0,0.0,"(0.0, 0.0, 0.0, 0.0, 0.0, 0.0, 0.0, 0.0, 0.0)"
2019/10/07/19:14:09.044818,3845,1570443249,44410895,gyro_link,0.0,0.0,0.952714530523,0.303866785501,"(1.7976931348623157e+308, 0.0, 0.0, 0.0, 1.7976931348623157e+308, 0.0, 0.0, 0.0, 0.05)",0.0,0.0,-0.0237364778271,"(1.7976931348623157e+308, 0.0, 0.0, 0.0, 1.7976931348623157e+308, 0.0, 0.0, 0.0, 0.05)",0.0,0.0,0.0,"(0.0, 0.0, 0.0, 0.0, 0.0, 0.0, 0.0, 0.0, 0.0)"
2019/10/07/19:14:09.104747,3846,1570443249,104318172,gyro_link,0.0,0.0,0.952661481254,0.304033060925,"(1.7976931348623157e+308, 0.0, 0.0, 0.0, 1.7976931348623157e+308, 0.0, 0.0, 0.0, 0.05)",0.0,0.0,-0.00226892802759,"(1.7976931348623157e+308, 0.0, 0.0, 0.0, 1.7976931348623157e+308, 0.0, 0.0, 0.0, 0.05)",0.0,0.0,0.0,"(0.0, 0.0, 0.0, 0.0, 0.0, 0.0, 0.0, 0.0, 0.0)"
2019/10/07/19:14:09.164638,3847,1570443249,164134395,gyro_link,0.0,0.0,0.952581852938,0.304282456696,"(1.7976931348623157e+308, 0.0, 0.0, 0.0, 1.7976931348623157e+308, 0.0, 0.0, 0.0, 0.05)",0.0,0.0,0.00750491578358,"(1.7976931348623157e+308, 0.0, 0.0, 0.0, 1.7976931348623157e+308, 0.0, 0.0, 0.0, 0.05)",0.0,0.0,0.0,"(0.0, 0.0, 0.0, 0.0, 0.0, 0.0, 0.0, 0.0, 0.0)"
2019/10/07/19:14:09.224480,3848,1570443249,224002559,gyro_link,0.0,0.0,0.952581852938,0.304282456696,"(1.7976931348623157e+308, 0.0, 0.0, 0.0, 1.7976931348623157e+308, 0.0, 0.0, 0.0, 0.05)",0.0,0.0,-0.00610865238198,"(1.7976931348623157e+308, 0.0, 0.0, 0.0, 1.7976931348623157e+308, 0.0, 0.0, 0.0, 0.05)",0.0,0.0,0.0,"(0.0, 0.0, 0.0, 0.0, 0.0, 0.0, 0.0, 0.0, 0.0)"
2019/10/07/19:14:09.284506,3849,1570443249,283947848,gyro_link,0.0,0.0,0.952502159334,0.304531831612,"(1.7976931348623157e+308, 0.0, 0.0, 0.0, 1.7976931348623157e+308, 0.0, 0.0, 0.0, 0.05)",0.0,0.0,-0.014835298642,"(1.7976931348623157e+308, 0.0, 0.0, 0.0, 1.7976931348623157e+308, 0.0, 0.0, 0.0, 0.05)",0.0,0.0,0.0,"(0.0, 0.0, 0.0, 0.0, 0.0, 0.0, 0.0, 0.0, 0.0)"
2019/10/07/19:14:09.344373,3850,1570443249,343745512,gyro_link,0.0,0.0,0.952315953719,0.305113625215,"(1.7976931348623157e+308, 0.0, 0.0, 0.0, 1.7976931348623157e+308, 0.0, 0.0, 0.0, 0.05)",0.0,0.0,-0.0301941960595,"(1.7976931348623157e+308, 0.0, 0.0, 0.0, 1.7976931348623157e+308, 0.0, 0.0, 0.0, 0.05)",0.0,0.0,0.0,"(0.0, 0.0, 0.0, 0.0, 0.0, 0.0, 0.0, 0.0, 0.0)"
2019/10/07/19:14:09.404258,3851,1570443249,403594910,gyro_link,0.0,0.0,0.952422400446,0.304781185655,"(1.7976931348623157e+308, 0.0, 0.0, 0.0, 1.7976931348623157e+308, 0.0, 0.0, 0.0, 0.05)",0.0,0.0,0.0108210413624,"(1.7976931348623157e+308, 0.0, 0.0, 0.0, 1.7976931348623157e+308, 0.0, 0.0, 0.0, 0.05)",0.0,0.0,0.0,"(0.0, 0.0, 0.0, 0.0, 0.0, 0.0, 0.0, 0.0, 0.0)"
2019/10/07/19:14:09.463844,3852,1570443249,463438249,gyro_link,0.0,0.0,0.952422400446,0.304781185655,"(1.7976931348623157e+308, 0.0, 0.0, 0.0, 1.7976931348623157e+308, 0.0, 0.0, 0.0, 0.05)",0.0,0.0,0.0205948851735,"(1.7976931348623157e+308, 0.0, 0.0, 0.0, 1.7976931348623157e+308, 0.0, 0.0, 0.0, 0.05)",0.0,0.0,0.0,"(0.0, 0.0, 0.0, 0.0, 0.0, 0.0, 0.0, 0.0, 0.0)"
2019/10/07/19:14:09.521738,3853,1570443249,521362226,gyro_link,0.0,0.0,0.952369191588,0.304947410079,"(1.7976931348623157e+308, 0.0, 0.0, 0.0, 1.7976931348623157e+308, 0.0, 0.0, 0.0, 0.05)",0.0,0.0,-0.0356047167407,"(1.7976931348623157e+308, 0.0, 0.0, 0.0, 1.7976931348623157e+308, 0.0, 0.0, 0.0, 0.05)",0.0,0.0,0.0,"(0.0, 0.0, 0.0, 0.0, 0.0, 0.0, 0.0, 0.0, 0.0)"
2019/10/07/19:14:09.543820,3854,1570443249,543283906,gyro_link,0.0,0.0,0.95234257628,0.305030518809,"(1.7976931348623157e+308, 0.0, 0.0, 0.0, 1.7976931348623157e+308, 0.0, 0.0, 0.0, 0.05)",0.0,0.0,-0.00663225115758,"(1.7976931348623157e+308, 0.0, 0.0, 0.0, 1.7976931348623157e+308, 0.0, 0.0, 0.0, 0.05)",0.0,0.0,0.0,"(0.0, 0.0, 0.0, 0.0, 0.0, 0.0, 0.0, 0.0, 0.0)"
2019/10/07/19:14:09.604048,3855,1570443249,603363877,gyro_link,0.0,0.0,0.952369191588,0.304947410079,"(1.7976931348623157e+308, 0.0, 0.0, 0.0, 1.7976931348623157e+308, 0.0, 0.0, 0.0, 0.05)",0.0,0.0,-0.00663225115758,"(1.7976931348623157e+308, 0.0, 0.0, 0.0, 1.7976931348623157e+308, 0.0, 0.0, 0.0, 0.05)",0.0,0.0,0.0,"(0.0, 0.0, 0.0, 0.0, 0.0, 0.0, 0.0, 0.0, 0.0)"
2019/10/07/19:14:09.662937,3856,1570443249,662755597,gyro_link,0.0,0.0,0.952236042525,0.30536293049,"(1.7976931348623157e+308, 0.0, 0.0, 0.0, 1.7976931348623157e+308, 0.0, 0.0, 0.0, 0.05)",0.0,0.0,-0.0129154364648,"(1.7976931348623157e+308, 0.0, 0.0, 0.0, 1.7976931348623157e+308, 0.0, 0.0, 0.0, 0.05)",0.0,0.0,0.0,"(0.0, 0.0, 0.0, 0.0, 0.0, 0.0, 0.0, 0.0, 0.0)"
2019/10/07/19:14:09.723483,3857,1570443249,723063559,gyro_link,0.0,0.0,0.952129392742,0.305695304963,"(1.7976931348623157e+308, 0.0, 0.0, 0.0, 1.7976931348623157e+308, 0.0, 0.0, 0.0, 0.05)",0.0,0.0,-0.0277507351067,"(1.7976931348623157e+308, 0.0, 0.0, 0.0, 1.7976931348623157e+308, 0.0, 0.0, 0.0, 0.05)",0.0,0.0,0.0,"(0.0, 0.0, 0.0, 0.0, 0.0, 0.0, 0.0, 0.0, 0.0)"
2019/10/07/19:14:09.783698,3858,1570443249,783093468,gyro_link,0.0,0.0,0.952262686841,0.305279831056,"(1.7976931348623157e+308, 0.0, 0.0, 0.0, 1.7976931348623157e+308, 0.0, 0.0, 0.0, 0.05)",0.0,0.0,0.0462512251778,"(1.7976931348623157e+308, 0.0, 0.0, 0.0, 1.7976931348623157e+308, 0.0, 0.0, 0.0, 0.05)",0.0,0.0,0.0,"(0.0, 0.0, 0.0, 0.0, 0.0, 0.0, 0.0, 0.0, 0.0)"
2019/10/07/19:14:09.842395,3859,1570443249,841827218,gyro_link,0.0,0.0,0.952236042525,0.30536293049,"(1.7976931348623157e+308, 0.0, 0.0, 0.0, 1.7976931348623157e+308, 0.0, 0.0, 0.0, 0.05)",0.0,0.0,-0.00750491578358,"(1.7976931348623157e+308, 0.0, 0.0, 0.0, 1.7976931348623157e+308, 0.0, 0.0, 0.0, 0.05)",0.0,0.0,0.0,"(0.0, 0.0, 0.0, 0.0, 0.0, 0.0, 0.0, 0.0, 0.0)"
2019/10/07/19:14:09.863500,3860,1570443249,862848520,gyro_link,0.0,0.0,0.952236042525,0.30536293049,"(1.7976931348623157e+308, 0.0, 0.0, 0.0, 1.7976931348623157e+308, 0.0, 0.0, 0.0, 0.05)",0.0,0.0,-0.00366519142919,"(1.7976931348623157e+308, 0.0, 0.0, 0.0, 1.7976931348623157e+308, 0.0, 0.0, 0.0, 0.05)",0.0,0.0,0.0,"(0.0, 0.0, 0.0, 0.0, 0.0, 0.0, 0.0, 0.0, 0.0)"
2019/10/07/19:14:09.922310,3861,1570443249,921854038,gyro_link,0.0,0.0,0.952022626946,0.306027642189,"(1.7976931348623157e+308, 0.0, 0.0, 0.0, 1.7976931348623157e+308, 0.0, 0.0, 0.0, 0.05)",0.0,0.0,-0.0342084533391,"(1.7976931348623157e+308, 0.0, 0.0, 0.0, 1.7976931348623157e+308, 0.0, 0.0, 0.0, 0.05)",0.0,0.0,0.0,"(0.0, 0.0, 0.0, 0.0, 0.0, 0.0, 0.0, 0.0, 0.0)"
2019/10/07/19:14:09.980011,3862,1570443249,979490699,gyro_link,0.0,0.0,0.952236042525,0.30536293049,"(1.7976931348623157e+308, 0.0, 0.0, 0.0, 1.7976931348623157e+308, 0.0, 0.0, 0.0, 0.05)",0.0,0.0,0.055152404363,"(1.7976931348623157e+308, 0.0, 0.0, 0.0, 1.7976931348623157e+308, 0.0, 0.0, 0.0, 0.05)",0.0,0.0,0.0,"(0.0, 0.0, 0.0, 0.0, 0.0, 0.0, 0.0, 0.0, 0.0)"
2019/10/07/19:14:10.003113,3863,1570443250,2539436,gyro_link,0.0,0.0,0.952315953719,0.305113625215,"(1.7976931348623157e+308, 0.0, 0.0, 0.0, 1.7976931348623157e+308, 0.0, 0.0, 0.0, 0.05)",0.0,0.0,0.0111701072128,"(1.7976931348623157e+308, 0.0, 0.0, 0.0, 1.7976931348623157e+308, 0.0, 0.0, 0.0, 0.05)",0.0,0.0,0.0,"(0.0, 0.0, 0.0, 0.0, 0.0, 0.0, 0.0, 0.0, 0.0)"
2019/10/07/19:14:10.062035,3864,1570443250,61529616,gyro_link,0.0,0.0,0.952289323906,0.305196729298,"(1.7976931348623157e+308, 0.0, 0.0, 0.0, 1.7976931348623157e+308, 0.0, 0.0, 0.0, 0.05)",0.0,0.0,0.0193731546971,"(1.7976931348623157e+308, 0.0, 0.0, 0.0, 1.7976931348623157e+308, 0.0, 0.0, 0.0, 0.05)",0.0,0.0,0.0,"(0.0, 0.0, 0.0, 0.0, 0.0, 0.0, 0.0, 0.0, 0.0)"
2019/10/07/19:14:10.119681,3865,1570443250,119231110,gyro_link,0.0,0.0,0.952608402965,0.304199327089,"(1.7976931348623157e+308, 0.0, 0.0, 0.0, 1.7976931348623157e+308, 0.0, 0.0, 0.0, 0.05)",0.0,0.0,-0.0197222205475,"(1.7976931348623157e+308, 0.0, 0.0, 0.0, 1.7976931348623157e+308, 0.0, 0.0, 0.0, 0.05)",0.0,0.0,0.0,"(0.0, 0.0, 0.0, 0.0, 0.0, 0.0, 0.0, 0.0, 0.0)"
2019/10/07/19:14:10.141804,3866,1570443250,141400741,gyro_link,0.0,0.0,0.952475580291,0.304614951946,"(1.7976931348623157e+308, 0.0, 0.0, 0.0, 1.7976931348623157e+308, 0.0, 0.0, 0.0, 0.05)",0.0,0.0,-0.0439822971503,"(1.7976931348623157e+308, 0.0, 0.0, 0.0, 1.7976931348623157e+308, 0.0, 0.0, 0.0, 0.05)",0.0,0.0,0.0,"(0.0, 0.0, 0.0, 0.0, 0.0, 0.0, 0.0, 0.0, 0.0)"
2019/10/07/19:14:10.201742,3867,1570443250,201376450,gyro_link,0.0,0.0,0.952156066065,0.305612214835,"(1.7976931348623157e+308, 0.0, 0.0, 0.0, 1.7976931348623157e+308, 0.0, 0.0, 0.0, 0.05)",0.0,0.0,-0.0343829862643,"(1.7976931348623157e+308, 0.0, 0.0, 0.0, 1.7976931348623157e+308, 0.0, 0.0, 0.0, 0.05)",0.0,0.0,0.0,"(0.0, 0.0, 0.0, 0.0, 0.0, 0.0, 0.0, 0.0, 0.0)"
2019/10/07/19:14:10.259569,3868,1570443250,259111381,gyro_link,0.0,0.0,0.951781979795,0.306775264548,"(1.7976931348623157e+308, 0.0, 0.0, 0.0, 1.7976931348623157e+308, 0.0, 0.0, 0.0, 0.05)",0.0,0.0,0.0181514242207,"(1.7976931348623157e+308, 0.0, 0.0, 0.0, 1.7976931348623157e+308, 0.0, 0.0, 0.0, 0.05)",0.0,0.0,0.0,"(0.0, 0.0, 0.0, 0.0, 0.0, 0.0, 0.0, 0.0, 0.0)"
2019/10/07/19:14:10.281671,3869,1570443250,281114141,gyro_link,0.0,0.0,0.951889006575,0.306443011278,"(1.7976931348623157e+308, 0.0, 0.0, 0.0, 1.7976931348623157e+308, 0.0, 0.0, 0.0, 0.05)",0.0,0.0,0.0397935069455,"(1.7976931348623157e+308, 0.0, 0.0, 0.0, 1.7976931348623157e+308, 0.0, 0.0, 0.0, 0.05)",0.0,0.0,0.0,"(0.0, 0.0, 0.0, 0.0, 0.0, 0.0, 0.0, 0.0, 0.0)"
2019/10/07/19:14:10.341475,3870,1570443250,341076847,gyro_link,0.0,0.0,0.952102712169,0.305778392763,"(1.7976931348623157e+308, 0.0, 0.0, 0.0, 1.7976931348623157e+308, 0.0, 0.0, 0.0, 0.05)",0.0,0.0,-0.0010471975512,"(1.7976931348623157e+308, 0.0, 0.0, 0.0, 1.7976931348623157e+308, 0.0, 0.0, 0.0, 0.05)",0.0,0.0,0.0,"(0.0, 0.0, 0.0, 0.0, 0.0, 0.0, 0.0, 0.0, 0.0)"
2019/10/07/19:14:10.399299,3871,1570443250,399004341,gyro_link,0.0,0.0,0.951781979795,0.306775264548,"(1.7976931348623157e+308, 0.0, 0.0, 0.0, 1.7976931348623157e+308, 0.0, 0.0, 0.0, 0.05)",0.0,0.0,-0.0352556508903,"(1.7976931348623157e+308, 0.0, 0.0, 0.0, 1.7976931348623157e+308, 0.0, 0.0, 0.0, 0.05)",0.0,0.0,0.0,"(0.0, 0.0, 0.0, 0.0, 0.0, 0.0, 0.0, 0.0, 0.0)"
2019/10/07/19:14:10.421082,3872,1570443250,420733070,gyro_link,0.0,0.0,0.951674837042,0.307107480437,"(1.7976931348623157e+308, 0.0, 0.0, 0.0, 1.7976931348623157e+308, 0.0, 0.0, 0.0, 0.05)",0.0,0.0,-0.0356047167407,"(1.7976931348623157e+308, 0.0, 0.0, 0.0, 1.7976931348623157e+308, 0.0, 0.0, 0.0, 0.05)",0.0,0.0,0.0,"(0.0, 0.0, 0.0, 0.0, 0.0, 0.0, 0.0, 0.0, 0.0)"
2019/10/07/19:14:10.479238,3873,1570443250,478783255,gyro_link,0.0,0.0,0.951808747363,0.306692204733,"(1.7976931348623157e+308, 0.0, 0.0, 0.0, 1.7976931348623157e+308, 0.0, 0.0, 0.0, 0.05)",0.0,0.0,0.00471238898038,"(1.7976931348623157e+308, 0.0, 0.0, 0.0, 1.7976931348623157e+308, 0.0, 0.0, 0.0, 0.05)",0.0,0.0,0.0,"(0.0, 0.0, 0.0, 0.0, 0.0, 0.0, 0.0, 0.0, 0.0)"
2019/10/07/19:14:10.500926,3874,1570443250,500510019,gyro_link,0.0,0.0,0.951755204978,0.306858322026,"(1.7976931348623157e+308, 0.0, 0.0, 0.0, 1.7976931348623157e+308, 0.0, 0.0, 0.0, 0.05)",0.0,0.0,-0.0193731546971,"(1.7976931348623157e+308, 0.0, 0.0, 0.0, 1.7976931348623157e+308, 0.0, 0.0, 0.0, 0.05)",0.0,0.0,0.0,"(0.0, 0.0, 0.0, 0.0, 0.0, 0.0, 0.0, 0.0, 0.0)"
2019/10/07/19:14:10.560867,3875,1570443250,560448548,gyro_link,0.0,0.0,0.951781979795,0.306775264548,"(1.7976931348623157e+308, 0.0, 0.0, 0.0, 1.7976931348623157e+308, 0.0, 0.0, 0.0, 0.05)",0.0,0.0,0.0141371669412,"(1.7976931348623157e+308, 0.0, 0.0, 0.0, 1.7976931348623157e+308, 0.0, 0.0, 0.0, 0.05)",0.0,0.0,0.0,"(0.0, 0.0, 0.0, 0.0, 0.0, 0.0, 0.0, 0.0, 0.0)"
2019/10/07/19:14:10.621185,3876,1570443250,620611528,gyro_link,0.0,0.0,0.951648033235,0.307190528564,"(1.7976931348623157e+308, 0.0, 0.0, 0.0, 1.7976931348623157e+308, 0.0, 0.0, 0.0, 0.05)",0.0,0.0,-0.0134390352404,"(1.7976931348623157e+308, 0.0, 0.0, 0.0, 1.7976931348623157e+308, 0.0, 0.0, 0.0, 0.05)",0.0,0.0,0.0,"(0.0, 0.0, 0.0, 0.0, 0.0, 0.0, 0.0, 0.0, 0.0)"
2019/10/07/19:14:10.681044,3877,1570443250,680522873,gyro_link,0.0,0.0,0.951701633602,0.307024429971,"(1.7976931348623157e+308, 0.0, 0.0, 0.0, 1.7976931348623157e+308, 0.0, 0.0, 0.0, 0.05)",0.0,0.0,-0.0305432619099,"(1.7976931348623157e+308, 0.0, 0.0, 0.0, 1.7976931348623157e+308, 0.0, 0.0, 0.0, 0.05)",0.0,0.0,0.0,"(0.0, 0.0, 0.0, 0.0, 0.0, 0.0, 0.0, 0.0, 0.0)"
2019/10/07/19:14:10.740682,3878,1570443250,740099306,gyro_link,0.0,0.0,0.951513905495,0.307605734096,"(1.7976931348623157e+308, 0.0, 0.0, 0.0, 1.7976931348623157e+308, 0.0, 0.0, 0.0, 0.05)",0.0,0.0,0.00698131700798,"(1.7976931348623157e+308, 0.0, 0.0, 0.0, 1.7976931348623157e+308, 0.0, 0.0, 0.0, 0.05)",0.0,0.0,0.0,"(0.0, 0.0, 0.0, 0.0, 0.0, 0.0, 0.0, 0.0, 0.0)"
2019/10/07/19:14:10.800536,3879,1570443250,800091662,gyro_link,0.0,0.0,0.951513905495,0.307605734096,"(1.7976931348623157e+308, 0.0, 0.0, 0.0, 1.7976931348623157e+308, 0.0, 0.0, 0.0, 0.05)",0.0,0.0,-0.0116937059884,"(1.7976931348623157e+308, 0.0, 0.0, 0.0, 1.7976931348623157e+308, 0.0, 0.0, 0.0, 0.05)",0.0,0.0,0.0,"(0.0, 0.0, 0.0, 0.0, 0.0, 0.0, 0.0, 0.0, 0.0)"
2019/10/07/19:14:10.860280,3880,1570443250,859876622,gyro_link,0.0,0.0,0.951648033235,0.307190528564,"(1.7976931348623157e+308, 0.0, 0.0, 0.0, 1.7976931348623157e+308, 0.0, 0.0, 0.0, 0.05)",0.0,0.0,0.0202458193231,"(1.7976931348623157e+308, 0.0, 0.0, 0.0, 1.7976931348623157e+308, 0.0, 0.0, 0.0, 0.05)",0.0,0.0,0.0,"(0.0, 0.0, 0.0, 0.0, 0.0, 0.0, 0.0, 0.0, 0.0)"
2019/10/07/19:14:10.920333,3881,1570443250,919907801,gyro_link,0.0,0.0,0.951460203675,0.307771799916,"(1.7976931348623157e+308, 0.0, 0.0, 0.0, 1.7976931348623157e+308, 0.0, 0.0, 0.0, 0.05)",0.0,0.0,-0.00383972435439,"(1.7976931348623157e+308, 0.0, 0.0, 0.0, 1.7976931348623157e+308, 0.0, 0.0, 0.0, 0.05)",0.0,0.0,0.0,"(0.0, 0.0, 0.0, 0.0, 0.0, 0.0, 0.0, 0.0, 0.0)"
2019/10/07/19:14:10.980108,3882,1570443250,979492291,gyro_link,0.0,0.0,0.951648033235,0.307190528564,"(1.7976931348623157e+308, 0.0, 0.0, 0.0, 1.7976931348623157e+308, 0.0, 0.0, 0.0, 0.05)",0.0,0.0,-0.00959931088597,"(1.7976931348623157e+308, 0.0, 0.0, 0.0, 1.7976931348623157e+308, 0.0, 0.0, 0.0, 0.05)",0.0,0.0,0.0,"(0.0, 0.0, 0.0, 0.0, 0.0, 0.0, 0.0, 0.0, 0.0)"
2019/10/07/19:14:11.039944,3883,1570443251,39308772,gyro_link,0.0,0.0,0.951540745537,0.307522697673,"(1.7976931348623157e+308, 0.0, 0.0, 0.0, 1.7976931348623157e+308, 0.0, 0.0, 0.0, 0.05)",0.0,0.0,0.01308996939,"(1.7976931348623157e+308, 0.0, 0.0, 0.0, 1.7976931348623157e+308, 0.0, 0.0, 0.0, 0.05)",0.0,0.0,0.0,"(0.0, 0.0, 0.0, 0.0, 0.0, 0.0, 0.0, 0.0, 0.0)"
2019/10/07/19:14:11.099198,3884,1570443251,98739806,gyro_link,0.0,0.0,0.951379596601,0.308020881065,"(1.7976931348623157e+308, 0.0, 0.0, 0.0, 1.7976931348623157e+308, 0.0, 0.0, 0.0, 0.05)",0.0,0.0,-0.0198967534727,"(1.7976931348623157e+308, 0.0, 0.0, 0.0, 1.7976931348623157e+308, 0.0, 0.0, 0.0, 0.05)",0.0,0.0,0.0,"(0.0, 0.0, 0.0, 0.0, 0.0, 0.0, 0.0, 0.0, 0.0)"
2019/10/07/19:14:11.156758,3885,1570443251,156255901,gyro_link,0.0,0.0,0.951674837042,0.307107480437,"(1.7976931348623157e+308, 0.0, 0.0, 0.0, 1.7976931348623157e+308, 0.0, 0.0, 0.0, 0.05)",0.0,0.0,0.0219911485751,"(1.7976931348623157e+308, 0.0, 0.0, 0.0, 1.7976931348623157e+308, 0.0, 0.0, 0.0, 0.05)",0.0,0.0,0.0,"(0.0, 0.0, 0.0, 0.0, 0.0, 0.0, 0.0, 0.0, 0.0)"
2019/10/07/19:14:11.179545,3886,1570443251,179217746,gyro_link,0.0,0.0,0.951621222181,0.307273574352,"(1.7976931348623157e+308, 0.0, 0.0, 0.0, 1.7976931348623157e+308, 0.0, 0.0, 0.0, 0.05)",0.0,0.0,-0.0190240888467,"(1.7976931348623157e+308, 0.0, 0.0, 0.0, 1.7976931348623157e+308, 0.0, 0.0, 0.0, 0.05)",0.0,0.0,0.0,"(0.0, 0.0, 0.0, 0.0, 0.0, 0.0, 0.0, 0.0, 0.0)"
2019/10/07/19:14:11.238841,3887,1570443251,238184149,gyro_link,0.0,0.0,0.951621222181,0.307273574352,"(1.7976931348623157e+308, 0.0, 0.0, 0.0, 1.7976931348623157e+308, 0.0, 0.0, 0.0, 0.05)",0.0,0.0,0.00802851455917,"(1.7976931348623157e+308, 0.0, 0.0, 0.0, 1.7976931348623157e+308, 0.0, 0.0, 0.0, 0.05)",0.0,0.0,0.0,"(0.0, 0.0, 0.0, 0.0, 0.0, 0.0, 0.0, 0.0, 0.0)"
2019/10/07/19:14:11.296800,3888,1570443251,296125972,gyro_link,0.0,0.0,0.951352713086,0.308103903424,"(1.7976931348623157e+308, 0.0, 0.0, 0.0, 1.7976931348623157e+308, 0.0, 0.0, 0.0, 0.05)",0.0,0.0,-0.0146607657168,"(1.7976931348623157e+308, 0.0, 0.0, 0.0, 1.7976931348623157e+308, 0.0, 0.0, 0.0, 0.05)",0.0,0.0,0.0,"(0.0, 0.0, 0.0, 0.0, 0.0, 0.0, 0.0, 0.0, 0.0)"
2019/10/07/19:14:11.318554,3889,1570443251,318053898,gyro_link,0.0,0.0,0.951406472871,0.30793785636,"(1.7976931348623157e+308, 0.0, 0.0, 0.0, 1.7976931348623157e+308, 0.0, 0.0, 0.0, 0.05)",0.0,0.0,0.0249582083035,"(1.7976931348623157e+308, 0.0, 0.0, 0.0, 1.7976931348623157e+308, 0.0, 0.0, 0.0, 0.05)",0.0,0.0,0.0,"(0.0, 0.0, 0.0, 0.0, 0.0, 0.0, 0.0, 0.0, 0.0)"
2019/10/07/19:14:11.376386,3890,1570443251,375870075,gyro_link,0.0,0.0,0.951540745537,0.307522697673,"(1.7976931348623157e+308, 0.0, 0.0, 0.0, 1.7976931348623157e+308, 0.0, 0.0, 0.0, 0.05)",0.0,0.0,-0.0280998009571,"(1.7976931348623157e+308, 0.0, 0.0, 0.0, 1.7976931348623157e+308, 0.0, 0.0, 0.0, 0.05)",0.0,0.0,0.0,"(0.0, 0.0, 0.0, 0.0, 0.0, 0.0, 0.0, 0.0, 0.0)"
2019/10/07/19:14:11.398318,3891,1570443251,397969218,gyro_link,0.0,0.0,0.951460203675,0.307771799916,"(1.7976931348623157e+308, 0.0, 0.0, 0.0, 1.7976931348623157e+308, 0.0, 0.0, 0.0, 0.05)",0.0,0.0,-0.00802851455917,"(1.7976931348623157e+308, 0.0, 0.0, 0.0, 1.7976931348623157e+308, 0.0, 0.0, 0.0, 0.05)",0.0,0.0,0.0,"(0.0, 0.0, 0.0, 0.0, 0.0, 0.0, 0.0, 0.0, 0.0)"
2019/10/07/19:14:11.456102,3892,1570443251,455692173,gyro_link,0.0,0.0,0.951540745537,0.307522697673,"(1.7976931348623157e+308, 0.0, 0.0, 0.0, 1.7976931348623157e+308, 0.0, 0.0, 0.0, 0.05)",0.0,0.0,-0.00680678408278,"(1.7976931348623157e+308, 0.0, 0.0, 0.0, 1.7976931348623157e+308, 0.0, 0.0, 0.0, 0.05)",0.0,0.0,0.0,"(0.0, 0.0, 0.0, 0.0, 0.0, 0.0, 0.0, 0.0, 0.0)"
2019/10/07/19:14:11.478003,3893,1570443251,477683228,gyro_link,0.0,0.0,0.951487058208,0.307688768178,"(1.7976931348623157e+308, 0.0, 0.0, 0.0, 1.7976931348623157e+308, 0.0, 0.0, 0.0, 0.05)",0.0,0.0,-0.0246091424531,"(1.7976931348623157e+308, 0.0, 0.0, 0.0, 1.7976931348623157e+308, 0.0, 0.0, 0.0, 0.05)",0.0,0.0,0.0,"(0.0, 0.0, 0.0, 0.0, 0.0, 0.0, 0.0, 0.0, 0.0)"
2019/10/07/19:14:11.535900,3894,1570443251,535542976,gyro_link,0.0,0.0,0.951513905495,0.307605734096,"(1.7976931348623157e+308, 0.0, 0.0, 0.0, 1.7976931348623157e+308, 0.0, 0.0, 0.0, 0.05)",0.0,0.0,0.0263544717051,"(1.7976931348623157e+308, 0.0, 0.0, 0.0, 1.7976931348623157e+308, 0.0, 0.0, 0.0, 0.05)",0.0,0.0,0.0,"(0.0, 0.0, 0.0, 0.0, 0.0, 0.0, 0.0, 0.0, 0.0)"
2019/10/07/19:14:11.558324,3895,1570443251,557818268,gyro_link,0.0,0.0,0.951540745537,0.307522697673,"(1.7976931348623157e+308, 0.0, 0.0, 0.0, 1.7976931348623157e+308, 0.0, 0.0, 0.0, 0.05)",0.0,0.0,0.0010471975512,"(1.7976931348623157e+308, 0.0, 0.0, 0.0, 1.7976931348623157e+308, 0.0, 0.0, 0.0, 0.05)",0.0,0.0,0.0,"(0.0, 0.0, 0.0, 0.0, 0.0, 0.0, 0.0, 0.0, 0.0)"
2019/10/07/19:14:11.618046,3896,1570443251,617605011,gyro_link,0.0,0.0,0.951433341896,0.30785482931,"(1.7976931348623157e+308, 0.0, 0.0, 0.0, 1.7976931348623157e+308, 0.0, 0.0, 0.0, 0.05)",0.0,0.0,0.00925024503557,"(1.7976931348623157e+308, 0.0, 0.0, 0.0, 1.7976931348623157e+308, 0.0, 0.0, 0.0, 0.05)",0.0,0.0,0.0,"(0.0, 0.0, 0.0, 0.0, 0.0, 0.0, 0.0, 0.0, 0.0)"
2019/10/07/19:14:11.675997,3897,1570443251,675389225,gyro_link,0.0,0.0,0.951379596601,0.308020881065,"(1.7976931348623157e+308, 0.0, 0.0, 0.0, 1.7976931348623157e+308, 0.0, 0.0, 0.0, 0.05)",0.0,0.0,-0.0268780704807,"(1.7976931348623157e+308, 0.0, 0.0, 0.0, 1.7976931348623157e+308, 0.0, 0.0, 0.0, 0.05)",0.0,0.0,0.0,"(0.0, 0.0, 0.0, 0.0, 0.0, 0.0, 0.0, 0.0, 0.0)"
2019/10/07/19:14:11.698047,3898,1570443251,697403514,gyro_link,0.0,0.0,0.951352713086,0.308103903424,"(1.7976931348623157e+308, 0.0, 0.0, 0.0, 1.7976931348623157e+308, 0.0, 0.0, 0.0, 0.05)",0.0,0.0,0.00331612557879,"(1.7976931348623157e+308, 0.0, 0.0, 0.0, 1.7976931348623157e+308, 0.0, 0.0, 0.0, 0.05)",0.0,0.0,0.0,"(0.0, 0.0, 0.0, 0.0, 0.0, 0.0, 0.0, 0.0, 0.0)"
2019/10/07/19:14:11.757572,3899,1570443251,757194075,gyro_link,0.0,0.0,0.951594403879,0.3073566178,"(1.7976931348623157e+308, 0.0, 0.0, 0.0, 1.7976931348623157e+308, 0.0, 0.0, 0.0, 0.05)",0.0,0.0,-0.0202458193231,"(1.7976931348623157e+308, 0.0, 0.0, 0.0, 1.7976931348623157e+308, 0.0, 0.0, 0.0, 0.05)",0.0,0.0,0.0,"(0.0, 0.0, 0.0, 0.0, 0.0, 0.0, 0.0, 0.0, 0.0)"
2019/10/07/19:14:11.817467,3900,1570443251,817084671,gyro_link,0.0,0.0,0.951567578331,0.307439658907,"(1.7976931348623157e+308, 0.0, 0.0, 0.0, 1.7976931348623157e+308, 0.0, 0.0, 0.0, 0.05)",0.0,0.0,0.00977384381117,"(1.7976931348623157e+308, 0.0, 0.0, 0.0, 1.7976931348623157e+308, 0.0, 0.0, 0.0, 0.05)",0.0,0.0,0.0,"(0.0, 0.0, 0.0, 0.0, 0.0, 0.0, 0.0, 0.0, 0.0)"
2019/10/07/19:14:11.875491,3901,1570443251,875052029,gyro_link,0.0,0.0,0.951379596601,0.308020881065,"(1.7976931348623157e+308, 0.0, 0.0, 0.0, 1.7976931348623157e+308, 0.0, 0.0, 0.0, 0.05)",0.0,0.0,-0.0106465084372,"(1.7976931348623157e+308, 0.0, 0.0, 0.0, 1.7976931348623157e+308, 0.0, 0.0, 0.0, 0.05)",0.0,0.0,0.0,"(0.0, 0.0, 0.0, 0.0, 0.0, 0.0, 0.0, 0.0, 0.0)"
2019/10/07/19:14:11.897632,3902,1570443251,897154773,gyro_link,0.0,0.0,0.951379596601,0.308020881065,"(1.7976931348623157e+308, 0.0, 0.0, 0.0, 1.7976931348623157e+308, 0.0, 0.0, 0.0, 0.05)",0.0,0.0,0.010471975512,"(1.7976931348623157e+308, 0.0, 0.0, 0.0, 1.7976931348623157e+308, 0.0, 0.0, 0.0, 0.05)",0.0,0.0,0.0,"(0.0, 0.0, 0.0, 0.0, 0.0, 0.0, 0.0, 0.0, 0.0)"
2019/10/07/19:14:11.957301,3903,1570443251,956835392,gyro_link,0.0,0.0,0.951594403879,0.3073566178,"(1.7976931348623157e+308, 0.0, 0.0, 0.0, 1.7976931348623157e+308, 0.0, 0.0, 0.0, 0.05)",0.0,0.0,-0.00541052068118,"(1.7976931348623157e+308, 0.0, 0.0, 0.0, 1.7976931348623157e+308, 0.0, 0.0, 0.0, 0.05)",0.0,0.0,0.0,"(0.0, 0.0, 0.0, 0.0, 0.0, 0.0, 0.0, 0.0, 0.0)"
2019/10/07/19:14:12.017704,3904,1570443252,17089675,gyro_link,0.0,0.0,0.951621222181,0.307273574352,"(1.7976931348623157e+308, 0.0, 0.0, 0.0, 1.7976931348623157e+308, 0.0, 0.0, 0.0, 0.05)",0.0,0.0,0.00523598775598,"(1.7976931348623157e+308, 0.0, 0.0, 0.0, 1.7976931348623157e+308, 0.0, 0.0, 0.0, 0.05)",0.0,0.0,0.0,"(0.0, 0.0, 0.0, 0.0, 0.0, 0.0, 0.0, 0.0, 0.0)"
2019/10/07/19:14:12.077097,3905,1570443252,76541604,gyro_link,0.0,0.0,0.951487058208,0.307688768178,"(1.7976931348623157e+308, 0.0, 0.0, 0.0, 1.7976931348623157e+308, 0.0, 0.0, 0.0, 0.05)",0.0,0.0,-0.0010471975512,"(1.7976931348623157e+308, 0.0, 0.0, 0.0, 1.7976931348623157e+308, 0.0, 0.0, 0.0, 0.05)",0.0,0.0,0.0,"(0.0, 0.0, 0.0, 0.0, 0.0, 0.0, 0.0, 0.0, 0.0)"
2019/10/07/19:14:12.137342,3906,1570443252,136626902,gyro_link,0.0,0.0,0.951674837042,0.307107480437,"(1.7976931348623157e+308, 0.0, 0.0, 0.0, 1.7976931348623157e+308, 0.0, 0.0, 0.0, 0.05)",0.0,0.0,-0.00418879020479,"(1.7976931348623157e+308, 0.0, 0.0, 0.0, 1.7976931348623157e+308, 0.0, 0.0, 0.0, 0.05)",0.0,0.0,0.0,"(0.0, 0.0, 0.0, 0.0, 0.0, 0.0, 0.0, 0.0, 0.0)"
2019/10/07/19:14:12.196805,3907,1570443252,196430783,gyro_link,0.0,0.0,0.951621222181,0.307273574352,"(1.7976931348623157e+308, 0.0, 0.0, 0.0, 1.7976931348623157e+308, 0.0, 0.0, 0.0, 0.05)",0.0,0.0,-0.0118682389136,"(1.7976931348623157e+308, 0.0, 0.0, 0.0, 1.7976931348623157e+308, 0.0, 0.0, 0.0, 0.05)",0.0,0.0,0.0,"(0.0, 0.0, 0.0, 0.0, 0.0, 0.0, 0.0, 0.0, 0.0)"
2019/10/07/19:14:12.256650,3908,1570443252,256276123,gyro_link,0.0,0.0,0.951379596601,0.308020881065,"(1.7976931348623157e+308, 0.0, 0.0, 0.0, 1.7976931348623157e+308, 0.0, 0.0, 0.0, 0.05)",0.0,0.0,-0.0382227106187,"(1.7976931348623157e+308, 0.0, 0.0, 0.0, 1.7976931348623157e+308, 0.0, 0.0, 0.0, 0.05)",0.0,0.0,0.0,"(0.0, 0.0, 0.0, 0.0, 0.0, 0.0, 0.0, 0.0, 0.0)"
2019/10/07/19:14:12.316568,3909,1570443252,316192186,gyro_link,0.0,0.0,0.951567578331,0.307439658907,"(1.7976931348623157e+308, 0.0, 0.0, 0.0, 1.7976931348623157e+308, 0.0, 0.0, 0.0, 0.05)",0.0,0.0,0.0396189740203,"(1.7976931348623157e+308, 0.0, 0.0, 0.0, 1.7976931348623157e+308, 0.0, 0.0, 0.0, 0.05)",0.0,0.0,0.0,"(0.0, 0.0, 0.0, 0.0, 0.0, 0.0, 0.0, 0.0, 0.0)"
2019/10/07/19:14:12.376350,3910,1570443252,375886732,gyro_link,0.0,0.0,0.951487058208,0.307688768178,"(1.7976931348623157e+308, 0.0, 0.0, 0.0, 1.7976931348623157e+308, 0.0, 0.0, 0.0, 0.05)",0.0,0.0,-0.000698131700798,"(1.7976931348623157e+308, 0.0, 0.0, 0.0, 1.7976931348623157e+308, 0.0, 0.0, 0.0, 0.05)",0.0,0.0,0.0,"(0.0, 0.0, 0.0, 0.0, 0.0, 0.0, 0.0, 0.0, 0.0)"
2019/10/07/19:14:12.435703,3911,1570443252,435146524,gyro_link,0.0,0.0,0.951406472871,0.30793785636,"(1.7976931348623157e+308, 0.0, 0.0, 0.0, 1.7976931348623157e+308, 0.0, 0.0, 0.0, 0.05)",0.0,0.0,-0.0317649923863,"(1.7976931348623157e+308, 0.0, 0.0, 0.0, 1.7976931348623157e+308, 0.0, 0.0, 0.0, 0.05)",0.0,0.0,0.0,"(0.0, 0.0, 0.0, 0.0, 0.0, 0.0, 0.0, 0.0, 0.0)"
2019/10/07/19:14:12.456343,3912,1570443252,455880353,gyro_link,0.0,0.0,0.951325822325,0.308186923436,"(1.7976931348623157e+308, 0.0, 0.0, 0.0, 1.7976931348623157e+308, 0.0, 0.0, 0.0, 0.05)",0.0,0.0,-0.00907571211037,"(1.7976931348623157e+308, 0.0, 0.0, 0.0, 1.7976931348623157e+308, 0.0, 0.0, 0.0, 0.05)",0.0,0.0,0.0,"(0.0, 0.0, 0.0, 0.0, 0.0, 0.0, 0.0, 0.0, 0.0)"
2019/10/07/19:14:12.515228,3913,1570443252,514823659,gyro_link,0.0,0.0,0.951487058208,0.307688768178,"(1.7976931348623157e+308, 0.0, 0.0, 0.0, 1.7976931348623157e+308, 0.0, 0.0, 0.0, 0.05)",0.0,0.0,0.00750491578358,"(1.7976931348623157e+308, 0.0, 0.0, 0.0, 1.7976931348623157e+308, 0.0, 0.0, 0.0, 0.05)",0.0,0.0,0.0,"(0.0, 0.0, 0.0, 0.0, 0.0, 0.0, 0.0, 0.0, 0.0)"
2019/10/07/19:14:12.573002,3914,1570443252,572624157,gyro_link,0.0,0.0,0.951352713086,0.308103903424,"(1.7976931348623157e+308, 0.0, 0.0, 0.0, 1.7976931348623157e+308, 0.0, 0.0, 0.0, 0.05)",0.0,0.0,0.0190240888467,"(1.7976931348623157e+308, 0.0, 0.0, 0.0, 1.7976931348623157e+308, 0.0, 0.0, 0.0, 0.05)",0.0,0.0,0.0,"(0.0, 0.0, 0.0, 0.0, 0.0, 0.0, 0.0, 0.0, 0.0)"
2019/10/07/19:14:12.595393,3915,1570443252,594838158,gyro_link,0.0,0.0,0.951379596601,0.308020881065,"(1.7976931348623157e+308, 0.0, 0.0, 0.0, 1.7976931348623157e+308, 0.0, 0.0, 0.0, 0.05)",0.0,0.0,0.0102974425868,"(1.7976931348623157e+308, 0.0, 0.0, 0.0, 1.7976931348623157e+308, 0.0, 0.0, 0.0, 0.05)",0.0,0.0,0.0,"(0.0, 0.0, 0.0, 0.0, 0.0, 0.0, 0.0, 0.0, 0.0)"
2019/10/07/19:14:12.652759,3916,1570443252,652483198,gyro_link,0.0,0.0,0.951110435449,0.308850998993,"(1.7976931348623157e+308, 0.0, 0.0, 0.0, 1.7976931348623157e+308, 0.0, 0.0, 0.0, 0.05)",0.0,0.0,-0.0312413936107,"(1.7976931348623157e+308, 0.0, 0.0, 0.0, 1.7976931348623157e+308, 0.0, 0.0, 0.0, 0.05)",0.0,0.0,0.0,"(0.0, 0.0, 0.0, 0.0, 0.0, 0.0, 0.0, 0.0, 0.0)"
2019/10/07/19:14:12.674944,3917,1570443252,674582993,gyro_link,0.0,0.0,0.951083479494,0.30893399786,"(1.7976931348623157e+308, 0.0, 0.0, 0.0, 1.7976931348623157e+308, 0.0, 0.0, 0.0, 0.05)",0.0,0.0,-0.00349065850399,"(1.7976931348623157e+308, 0.0, 0.0, 0.0, 1.7976931348623157e+308, 0.0, 0.0, 0.0, 0.05)",0.0,0.0,0.0,"(0.0, 0.0, 0.0, 0.0, 0.0, 0.0, 0.0, 0.0, 0.0)"
2019/10/07/19:14:12.732793,3918,1570443252,732419305,gyro_link,0.0,0.0,0.950975583244,0.309265969796,"(1.7976931348623157e+308, 0.0, 0.0, 0.0, 1.7976931348623157e+308, 0.0, 0.0, 0.0, 0.05)",0.0,0.0,-0.0354301838155,"(1.7976931348623157e+308, 0.0, 0.0, 0.0, 1.7976931348623157e+308, 0.0, 0.0, 0.0, 0.05)",0.0,0.0,0.0,"(0.0, 0.0, 0.0, 0.0, 0.0, 0.0, 0.0, 0.0, 0.0)"
2019/10/07/19:14:12.754625,3919,1570443252,754241916,gyro_link,0.0,0.0,0.950894585014,0.30951492402,"(1.7976931348623157e+308, 0.0, 0.0, 0.0, 1.7976931348623157e+308, 0.0, 0.0, 0.0, 0.05)",0.0,0.0,-0.0132645023152,"(1.7976931348623157e+308, 0.0, 0.0, 0.0, 1.7976931348623157e+308, 0.0, 0.0, 0.0, 0.05)",0.0,0.0,0.0,"(0.0, 0.0, 0.0, 0.0, 0.0, 0.0, 0.0, 0.0, 0.0)"
2019/10/07/19:14:12.814876,3920,1570443252,814292236,gyro_link,0.0,0.0,0.95100256817,0.309182980343,"(1.7976931348623157e+308, 0.0, 0.0, 0.0, 1.7976931348623157e+308, 0.0, 0.0, 0.0, 0.05)",0.0,0.0,-0.0218166156499,"(1.7976931348623157e+308, 0.0, 0.0, 0.0, 1.7976931348623157e+308, 0.0, 0.0, 0.0, 0.05)",0.0,0.0,0.0,"(0.0, 0.0, 0.0, 0.0, 0.0, 0.0, 0.0, 0.0, 0.0)"
2019/10/07/19:14:12.872719,3921,1570443252,872155145,gyro_link,0.0,0.0,0.951029545854,0.309099988536,"(1.7976931348623157e+308, 0.0, 0.0, 0.0, 1.7976931348623157e+308, 0.0, 0.0, 0.0, 0.05)",0.0,0.0,0.0207694180987,"(1.7976931348623157e+308, 0.0, 0.0, 0.0, 1.7976931348623157e+308, 0.0, 0.0, 0.0, 0.05)",0.0,0.0,0.0,"(0.0, 0.0, 0.0, 0.0, 0.0, 0.0, 0.0, 0.0, 0.0)"
2019/10/07/19:14:12.894685,3922,1570443252,894214186,gyro_link,0.0,0.0,0.951029545854,0.309099988536,"(1.7976931348623157e+308, 0.0, 0.0, 0.0, 1.7976931348623157e+308, 0.0, 0.0, 0.0, 0.05)",0.0,0.0,0.0,"(1.7976931348623157e+308, 0.0, 0.0, 0.0, 1.7976931348623157e+308, 0.0, 0.0, 0.0, 0.05)",0.0,0.0,0.0,"(0.0, 0.0, 0.0, 0.0, 0.0, 0.0, 0.0, 0.0, 0.0)"
2019/10/07/19:14:12.952396,3923,1570443252,952026695,gyro_link,0.0,0.0,0.950759443137,0.309929800577,"(1.7976931348623157e+308, 0.0, 0.0, 0.0, 1.7976931348623157e+308, 0.0, 0.0, 0.0, 0.05)",0.0,0.0,-0.0209439510239,"(1.7976931348623157e+308, 0.0, 0.0, 0.0, 1.7976931348623157e+308, 0.0, 0.0, 0.0, 0.05)",0.0,0.0,0.0,"(0.0, 0.0, 0.0, 0.0, 0.0, 0.0, 0.0, 0.0, 0.0)"
2019/10/07/19:14:12.974375,3924,1570443252,974007536,gyro_link,0.0,0.0,0.950705335702,0.310095734683,"(1.7976931348623157e+308, 0.0, 0.0, 0.0, 1.7976931348623157e+308, 0.0, 0.0, 0.0, 0.05)",0.0,0.0,-0.0183259571459,"(1.7976931348623157e+308, 0.0, 0.0, 0.0, 1.7976931348623157e+308, 0.0, 0.0, 0.0, 0.05)",0.0,0.0,0.0,"(0.0, 0.0, 0.0, 0.0, 0.0, 0.0, 0.0, 0.0, 0.0)"
2019/10/07/19:14:13.034295,3925,1570443253,33926221,gyro_link,0.0,0.0,0.950542839641,0.310593480302,"(1.7976931348623157e+308, 0.0, 0.0, 0.0, 1.7976931348623157e+308, 0.0, 0.0, 0.0, 0.05)",0.0,0.0,0.0136135681656,"(1.7976931348623157e+308, 0.0, 0.0, 0.0, 1.7976931348623157e+308, 0.0, 0.0, 0.0, 0.05)",0.0,0.0,0.0,"(0.0, 0.0, 0.0, 0.0, 0.0, 0.0, 0.0, 0.0, 0.0)"
2019/10/07/19:14:13.094587,3926,1570443253,93944372,gyro_link,0.0,0.0,0.950678271124,0.310178698193,"(1.7976931348623157e+308, 0.0, 0.0, 0.0, 1.7976931348623157e+308, 0.0, 0.0, 0.0, 0.05)",0.0,0.0,0.000523598775598,"(1.7976931348623157e+308, 0.0, 0.0, 0.0, 1.7976931348623157e+308, 0.0, 0.0, 0.0, 0.05)",0.0,0.0,0.0,"(0.0, 0.0, 0.0, 0.0, 0.0, 0.0, 0.0, 0.0, 0.0)"
2019/10/07/19:14:13.154047,3927,1570443253,153681426,gyro_link,0.0,0.0,0.950786485994,0.309846829984,"(1.7976931348623157e+308, 0.0, 0.0, 0.0, 1.7976931348623157e+308, 0.0, 0.0, 0.0, 0.05)",0.0,0.0,0.011344640138,"(1.7976931348623157e+308, 0.0, 0.0, 0.0, 1.7976931348623157e+308, 0.0, 0.0, 0.0, 0.05)",0.0,0.0,0.0,"(0.0, 0.0, 0.0, 0.0, 0.0, 0.0, 0.0, 0.0, 0.0)"
2019/10/07/19:14:13.214128,3928,1570443253,213744580,gyro_link,0.0,0.0,0.950624120249,0.310344618128,"(1.7976931348623157e+308, 0.0, 0.0, 0.0, 1.7976931348623157e+308, 0.0, 0.0, 0.0, 0.05)",0.0,0.0,-0.0345575191895,"(1.7976931348623157e+308, 0.0, 0.0, 0.0, 1.7976931348623157e+308, 0.0, 0.0, 0.0, 0.05)",0.0,0.0,0.0,"(0.0, 0.0, 0.0, 0.0, 0.0, 0.0, 0.0, 0.0, 0.0)"
2019/10/07/19:14:13.273893,3929,1570443253,273538539,gyro_link,0.0,0.0,0.951056516295,0.309016994375,"(1.7976931348623157e+308, 0.0, 0.0, 0.0, 1.7976931348623157e+308, 0.0, 0.0, 0.0, 0.05)",0.0,0.0,0.0677187749774,"(1.7976931348623157e+308, 0.0, 0.0, 0.0, 1.7976931348623157e+308, 0.0, 0.0, 0.0, 0.05)",0.0,0.0,0.0,"(0.0, 0.0, 0.0, 0.0, 0.0, 0.0, 0.0, 0.0, 0.0)"
2019/10/07/19:14:13.334055,3930,1570443253,333423340,gyro_link,0.0,0.0,0.951137384162,0.308767997774,"(1.7976931348623157e+308, 0.0, 0.0, 0.0, 1.7976931348623157e+308, 0.0, 0.0, 0.0, 0.05)",0.0,0.0,-0.0349065850399,"(1.7976931348623157e+308, 0.0, 0.0, 0.0, 1.7976931348623157e+308, 0.0, 0.0, 0.0, 0.05)",0.0,0.0,0.0,"(0.0, 0.0, 0.0, 0.0, 0.0, 0.0, 0.0, 0.0, 0.0)"
2019/10/07/19:14:13.393715,3931,1570443253,393300050,gyro_link,0.0,0.0,0.950488616375,0.310759376593,"(1.7976931348623157e+308, 0.0, 0.0, 0.0, 1.7976931348623157e+308, 0.0, 0.0, 0.0, 0.05)",0.0,0.0,-0.0788888821901,"(1.7976931348623157e+308, 0.0, 0.0, 0.0, 1.7976931348623157e+308, 0.0, 0.0, 0.0, 0.05)",0.0,0.0,0.0,"(0.0, 0.0, 0.0, 0.0, 0.0, 0.0, 0.0, 0.0, 0.0)"
2019/10/07/19:14:13.452599,3932,1570443253,452282909,gyro_link,0.0,0.0,0.950678271124,0.310178698193,"(1.7976931348623157e+308, 0.0, 0.0, 0.0, 1.7976931348623157e+308, 0.0, 0.0, 0.0, 0.05)",0.0,0.0,0.0841248699461,"(1.7976931348623157e+308, 0.0, 0.0, 0.0, 1.7976931348623157e+308, 0.0, 0.0, 0.0, 0.05)",0.0,0.0,0.0,"(0.0, 0.0, 0.0, 0.0, 0.0, 0.0, 0.0, 0.0, 0.0)"
2019/10/07/19:14:13.553167,3933,1570443253,552784366,gyro_link,0.0,0.0,0.950624120249,0.310344618128,"(1.7976931348623157e+308, 0.0, 0.0, 0.0, 1.7976931348623157e+308, 0.0, 0.0, 0.0, 0.05)",0.0,0.0,-0.0504400153826,"(1.7976931348623157e+308, 0.0, 0.0, 0.0, 1.7976931348623157e+308, 0.0, 0.0, 0.0, 0.05)",0.0,0.0,0.0,"(0.0, 0.0, 0.0, 0.0, 0.0, 0.0, 0.0, 0.0, 0.0)"
2019/10/07/19:14:13.612224,3934,1570443253,611852624,gyro_link,0.0,0.0,0.950271433793,0.311422867043,"(1.7976931348623157e+308, 0.0, 0.0, 0.0, 1.7976931348623157e+308, 0.0, 0.0, 0.0, 0.05)",0.0,0.0,0.0106465084372,"(1.7976931348623157e+308, 0.0, 0.0, 0.0, 1.7976931348623157e+308, 0.0, 0.0, 0.0, 0.05)",0.0,0.0,0.0,"(0.0, 0.0, 0.0, 0.0, 0.0, 0.0, 0.0, 0.0, 0.0)"
2019/10/07/19:14:13.633121,3935,1570443253,632701031,gyro_link,0.0,0.0,0.950542839641,0.310593480302,"(1.7976931348623157e+308, 0.0, 0.0, 0.0, 1.7976931348623157e+308, 0.0, 0.0, 0.0, 0.05)",0.0,0.0,0.0823795406941,"(1.7976931348623157e+308, 0.0, 0.0, 0.0, 1.7976931348623157e+308, 0.0, 0.0, 0.0, 0.05)",0.0,0.0,0.0,"(0.0, 0.0, 0.0, 0.0, 0.0, 0.0, 0.0, 0.0, 0.0)"
2019/10/07/19:14:13.691700,3936,1570443253,691389333,gyro_link,0.0,0.0,0.950597033952,0.31042757455,"(1.7976931348623157e+308, 0.0, 0.0, 0.0, 1.7976931348623157e+308, 0.0, 0.0, 0.0, 0.05)",0.0,0.0,-0.0453785605519,"(1.7976931348623157e+308, 0.0, 0.0, 0.0, 1.7976931348623157e+308, 0.0, 0.0, 0.0, 0.05)",0.0,0.0,0.0,"(0.0, 0.0, 0.0, 0.0, 0.0, 0.0, 0.0, 0.0, 0.0)"
2019/10/07/19:14:13.749945,3937,1570443253,749433734,gyro_link,0.0,0.0,0.950461493885,0.310842321189,"(1.7976931348623157e+308, 0.0, 0.0, 0.0, 1.7976931348623157e+308, 0.0, 0.0, 0.0, 0.05)",0.0,0.0,-0.00226892802759,"(1.7976931348623157e+308, 0.0, 0.0, 0.0, 1.7976931348623157e+308, 0.0, 0.0, 0.0, 0.05)",0.0,0.0,0.0,"(0.0, 0.0, 0.0, 0.0, 0.0, 0.0, 0.0, 0.0, 0.0)"
2019/10/07/19:14:13.771865,3938,1570443253,771405633,gyro_link,0.0,0.0,0.950407227189,0.311008203279,"(1.7976931348623157e+308, 0.0, 0.0, 0.0, 1.7976931348623157e+308, 0.0, 0.0, 0.0, 0.05)",0.0,0.0,-0.0204203522483,"(1.7976931348623157e+308, 0.0, 0.0, 0.0, 1.7976931348623157e+308, 0.0, 0.0, 0.0, 0.05)",0.0,0.0,0.0,"(0.0, 0.0, 0.0, 0.0, 0.0, 0.0, 0.0, 0.0, 0.0)"
2019/10/07/19:14:13.829666,3939,1570443253,829291332,gyro_link,0.0,0.0,0.950542839641,0.310593480302,"(1.7976931348623157e+308, 0.0, 0.0, 0.0, 1.7976931348623157e+308, 0.0, 0.0, 0.0, 0.05)",0.0,0.0,0.0389208423195,"(1.7976931348623157e+308, 0.0, 0.0, 0.0, 1.7976931348623157e+308, 0.0, 0.0, 0.0, 0.05)",0.0,0.0,0.0,"(0.0, 0.0, 0.0, 0.0, 0.0, 0.0, 0.0, 0.0, 0.0)"
2019/10/07/19:14:13.851701,3940,1570443253,851391255,gyro_link,0.0,0.0,0.950597033952,0.31042757455,"(1.7976931348623157e+308, 0.0, 0.0, 0.0, 1.7976931348623157e+308, 0.0, 0.0, 0.0, 0.05)",0.0,0.0,0.0118682389136,"(1.7976931348623157e+308, 0.0, 0.0, 0.0, 1.7976931348623157e+308, 0.0, 0.0, 0.0, 0.05)",0.0,0.0,0.0,"(0.0, 0.0, 0.0, 0.0, 0.0, 0.0, 0.0, 0.0, 0.0)"
2019/10/07/19:14:13.909417,3941,1570443253,909088746,gyro_link,0.0,0.0,0.950298606946,0.311339939031,"(1.7976931348623157e+308, 0.0, 0.0, 0.0, 1.7976931348623157e+308, 0.0, 0.0, 0.0, 0.05)",0.0,0.0,-0.00645771823238,"(1.7976931348623157e+308, 0.0, 0.0, 0.0, 1.7976931348623157e+308, 0.0, 0.0, 0.0, 0.05)",0.0,0.0,0.0,"(0.0, 0.0, 0.0, 0.0, 0.0, 0.0, 0.0, 0.0, 0.0)"
2019/10/07/19:14:13.931518,3942,1570443253,931090580,gyro_link,0.0,0.0,0.950352931542,0.311174075894,"(1.7976931348623157e+308, 0.0, 0.0, 0.0, 1.7976931348623157e+308, 0.0, 0.0, 0.0, 0.05)",0.0,0.0,0.0190240888467,"(1.7976931348623157e+308, 0.0, 0.0, 0.0, 1.7976931348623157e+308, 0.0, 0.0, 0.0, 0.05)",0.0,0.0,0.0,"(0.0, 0.0, 0.0, 0.0, 0.0, 0.0, 0.0, 0.0, 0.0)"
2019/10/07/19:14:13.991383,3943,1570443253,990987080,gyro_link,0.0,0.0,0.950217065776,0.311588715952,"(1.7976931348623157e+308, 0.0, 0.0, 0.0, 1.7976931348623157e+308, 0.0, 0.0, 0.0, 0.05)",0.0,0.0,0.00296705972839,"(1.7976931348623157e+308, 0.0, 0.0, 0.0, 1.7976931348623157e+308, 0.0, 0.0, 0.0, 0.05)",0.0,0.0,0.0,"(0.0, 0.0, 0.0, 0.0, 0.0, 0.0, 0.0, 0.0, 0.0)"
2019/10/07/19:14:14.049159,3944,1570443254,48827372,gyro_link,0.0,0.0,0.950488616375,0.310759376593,"(1.7976931348623157e+308, 0.0, 0.0, 0.0, 1.7976931348623157e+308, 0.0, 0.0, 0.0, 0.05)",0.0,0.0,-0.0106465084372,"(1.7976931348623157e+308, 0.0, 0.0, 0.0, 1.7976931348623157e+308, 0.0, 0.0, 0.0, 0.05)",0.0,0.0,0.0,"(0.0, 0.0, 0.0, 0.0, 0.0, 0.0, 0.0, 0.0, 0.0)"
2019/10/07/19:14:14.071315,3945,1570443254,70922562,gyro_link,0.0,0.0,0.950380082985,0.311091140771,"(1.7976931348623157e+308, 0.0, 0.0, 0.0, 1.7976931348623157e+308, 0.0, 0.0, 0.0, 0.05)",0.0,0.0,-0.0380481776935,"(1.7976931348623157e+308, 0.0, 0.0, 0.0, 1.7976931348623157e+308, 0.0, 0.0, 0.0, 0.05)",0.0,0.0,0.0,"(0.0, 0.0, 0.0, 0.0, 0.0, 0.0, 0.0, 0.0, 0.0)"
2019/10/07/19:14:14.129333,3946,1570443254,128739351,gyro_link,0.0,0.0,0.950407227189,0.311008203279,"(1.7976931348623157e+308, 0.0, 0.0, 0.0, 1.7976931348623157e+308, 0.0, 0.0, 0.0, 0.05)",0.0,0.0,0.0179768912955,"(1.7976931348623157e+308, 0.0, 0.0, 0.0, 1.7976931348623157e+308, 0.0, 0.0, 0.0, 0.05)",0.0,0.0,0.0,"(0.0, 0.0, 0.0, 0.0, 0.0, 0.0, 0.0, 0.0, 0.0)"
2019/10/07/19:14:14.151261,3947,1570443254,150896557,gyro_link,0.0,0.0,0.950407227189,0.311008203279,"(1.7976931348623157e+308, 0.0, 0.0, 0.0, 1.7976931348623157e+308, 0.0, 0.0, 0.0, 0.05)",0.0,0.0,-0.010471975512,"(1.7976931348623157e+308, 0.0, 0.0, 0.0, 1.7976931348623157e+308, 0.0, 0.0, 0.0, 0.05)",0.0,0.0,0.0,"(0.0, 0.0, 0.0, 0.0, 0.0, 0.0, 0.0, 0.0, 0.0)"
2019/10/07/19:14:14.211314,3948,1570443254,210929521,gyro_link,0.0,0.0,0.950407227189,0.311008203279,"(1.7976931348623157e+308, 0.0, 0.0, 0.0, 1.7976931348623157e+308, 0.0, 0.0, 0.0, 0.05)",0.0,0.0,0.0335103216383,"(1.7976931348623157e+308, 0.0, 0.0, 0.0, 1.7976931348623157e+308, 0.0, 0.0, 0.0, 0.05)",0.0,0.0,0.0,"(0.0, 0.0, 0.0, 0.0, 0.0, 0.0, 0.0, 0.0, 0.0)"
2019/10/07/19:14:14.268831,3949,1570443254,268420342,gyro_link,0.0,0.0,0.950217065776,0.311588715952,"(1.7976931348623157e+308, 0.0, 0.0, 0.0, 1.7976931348623157e+308, 0.0, 0.0, 0.0, 0.05)",0.0,0.0,-0.0397935069455,"(1.7976931348623157e+308, 0.0, 0.0, 0.0, 1.7976931348623157e+308, 0.0, 0.0, 0.0, 0.05)",0.0,0.0,0.0,"(0.0, 0.0, 0.0, 0.0, 0.0, 0.0, 0.0, 0.0, 0.0)"
2019/10/07/19:14:14.290998,3950,1570443254,290600826,gyro_link,0.0,0.0,0.950189870912,0.311671636848,"(1.7976931348623157e+308, 0.0, 0.0, 0.0, 1.7976931348623157e+308, 0.0, 0.0, 0.0, 0.05)",0.0,0.0,-0.0010471975512,"(1.7976931348623157e+308, 0.0, 0.0, 0.0, 1.7976931348623157e+308, 0.0, 0.0, 0.0, 0.05)",0.0,0.0,0.0,"(0.0, 0.0, 0.0, 0.0, 0.0, 0.0, 0.0, 0.0, 0.0)"
2019/10/07/19:14:14.348857,3951,1570443254,348337156,gyro_link,0.0,0.0,0.950081019101,0.312003296688,"(1.7976931348623157e+308, 0.0, 0.0, 0.0, 1.7976931348623157e+308, 0.0, 0.0, 0.0, 0.05)",0.0,0.0,-0.0301941960595,"(1.7976931348623157e+308, 0.0, 0.0, 0.0, 1.7976931348623157e+308, 0.0, 0.0, 0.0, 0.05)",0.0,0.0,0.0,"(0.0, 0.0, 0.0, 0.0, 0.0, 0.0, 0.0, 0.0, 0.0)"
2019/10/07/19:14:14.370925,3952,1570443254,370242898,gyro_link,0.0,0.0,0.950026549782,0.312169112355,"(1.7976931348623157e+308, 0.0, 0.0, 0.0, 1.7976931348623157e+308, 0.0, 0.0, 0.0, 0.05)",0.0,0.0,-0.00959931088597,"(1.7976931348623157e+308, 0.0, 0.0, 0.0, 1.7976931348623157e+308, 0.0, 0.0, 0.0, 0.05)",0.0,0.0,0.0,"(0.0, 0.0, 0.0, 0.0, 0.0, 0.0, 0.0, 0.0, 0.0)"
2019/10/07/19:14:14.430930,3953,1570443254,430268154,gyro_link,0.0,0.0,0.950162668813,0.31175455537,"(1.7976931348623157e+308, 0.0, 0.0, 0.0, 1.7976931348623157e+308, 0.0, 0.0, 0.0, 0.05)",0.0,0.0,0.00157079632679,"(1.7976931348623157e+308, 0.0, 0.0, 0.0, 1.7976931348623157e+308, 0.0, 0.0, 0.0, 0.05)",0.0,0.0,0.0,"(0.0, 0.0, 0.0, 0.0, 0.0, 0.0, 0.0, 0.0, 0.0)"
2019/10/07/19:14:14.490956,3954,1570443254,490276057,gyro_link,0.0,0.0,0.949999304271,0.312252016623,"(1.7976931348623157e+308, 0.0, 0.0, 0.0, 1.7976931348623157e+308, 0.0, 0.0, 0.0, 0.05)",0.0,0.0,0.01308996939,"(1.7976931348623157e+308, 0.0, 0.0, 0.0, 1.7976931348623157e+308, 0.0, 0.0, 0.0, 0.05)",0.0,0.0,0.0,"(0.0, 0.0, 0.0, 0.0, 0.0, 0.0, 0.0, 0.0, 0.0)"
2019/10/07/19:14:14.550649,3955,1570443254,550147813,gyro_link,0.0,0.0,0.949781079748,0.312915165105,"(1.7976931348623157e+308, 0.0, 0.0, 0.0, 1.7976931348623157e+308, 0.0, 0.0, 0.0, 0.05)",0.0,0.0,-0.0467748239534,"(1.7976931348623157e+308, 0.0, 0.0, 0.0, 1.7976931348623157e+308, 0.0, 0.0, 0.0, 0.05)",0.0,0.0,0.0,"(0.0, 0.0, 0.0, 0.0, 0.0, 0.0, 0.0, 0.0, 0.0)"
2019/10/07/19:14:14.610558,3956,1570443254,610065081,gyro_link,0.0,0.0,0.949999304271,0.312252016623,"(1.7976931348623157e+308, 0.0, 0.0, 0.0, 1.7976931348623157e+308, 0.0, 0.0, 0.0, 0.05)",0.0,0.0,0.0209439510239,"(1.7976931348623157e+308, 0.0, 0.0, 0.0, 1.7976931348623157e+308, 0.0, 0.0, 0.0, 0.05)",0.0,0.0,0.0,"(0.0, 0.0, 0.0, 0.0, 0.0, 0.0, 0.0, 0.0, 0.0)"
2019/10/07/19:14:14.670394,3957,1570443254,669833359,gyro_link,0.0,0.0,0.949835679281,0.31274939227,"(1.7976931348623157e+308, 0.0, 0.0, 0.0, 1.7976931348623157e+308, 0.0, 0.0, 0.0, 0.05)",0.0,0.0,-0.00593411945678,"(1.7976931348623157e+308, 0.0, 0.0, 0.0, 1.7976931348623157e+308, 0.0, 0.0, 0.0, 0.05)",0.0,0.0,0.0,"(0.0, 0.0, 0.0, 0.0, 0.0, 0.0, 0.0, 0.0, 0.0)"
2019/10/07/19:14:14.730277,3958,1570443254,729828037,gyro_link,0.0,0.0,0.949781079748,0.312915165105,"(1.7976931348623157e+308, 0.0, 0.0, 0.0, 1.7976931348623157e+308, 0.0, 0.0, 0.0, 0.05)",0.0,0.0,-0.0441568300755,"(1.7976931348623157e+308, 0.0, 0.0, 0.0, 1.7976931348623157e+308, 0.0, 0.0, 0.0, 0.05)",0.0,0.0,0.0,"(0.0, 0.0, 0.0, 0.0, 0.0, 0.0, 0.0, 0.0, 0.0)"
2019/10/07/19:14:14.790185,3959,1570443254,789754622,gyro_link,0.0,0.0,0.949808383131,0.312832279878,"(1.7976931348623157e+308, 0.0, 0.0, 0.0, 1.7976931348623157e+308, 0.0, 0.0, 0.0, 0.05)",0.0,0.0,0.0349065850399,"(1.7976931348623157e+308, 0.0, 0.0, 0.0, 1.7976931348623157e+308, 0.0, 0.0, 0.0, 0.05)",0.0,0.0,0.0,"(0.0, 0.0, 0.0, 0.0, 0.0, 0.0, 0.0, 0.0, 0.0)"
2019/10/07/19:14:14.850197,3960,1570443254,849688851,gyro_link,0.0,0.0,0.949726451283,0.313080928408,"(1.7976931348623157e+308, 0.0, 0.0, 0.0, 1.7976931348623157e+308, 0.0, 0.0, 0.0, 0.05)",0.0,0.0,-0.0132645023152,"(1.7976931348623157e+308, 0.0, 0.0, 0.0, 1.7976931348623157e+308, 0.0, 0.0, 0.0, 0.05)",0.0,0.0,0.0,"(0.0, 0.0, 0.0, 0.0, 0.0, 0.0, 0.0, 0.0, 0.0)"
2019/10/07/19:14:14.908949,3961,1570443254,908658330,gyro_link,0.0,0.0,0.949726451283,0.313080928408,"(1.7976931348623157e+308, 0.0, 0.0, 0.0, 1.7976931348623157e+308, 0.0, 0.0, 0.0, 0.05)",0.0,0.0,-0.0338593874887,"(1.7976931348623157e+308, 0.0, 0.0, 0.0, 1.7976931348623157e+308, 0.0, 0.0, 0.0, 0.05)",0.0,0.0,0.0,"(0.0, 0.0, 0.0, 0.0, 0.0, 0.0, 0.0, 0.0, 0.0)"
2019/10/07/19:14:14.929890,3962,1570443254,929459687,gyro_link,0.0,0.0,0.949535023841,0.313661024833,"(1.7976931348623157e+308, 0.0, 0.0, 0.0, 1.7976931348623157e+308, 0.0, 0.0, 0.0, 0.05)",0.0,0.0,-0.0275762021815,"(1.7976931348623157e+308, 0.0, 0.0, 0.0, 1.7976931348623157e+308, 0.0, 0.0, 0.0, 0.05)",0.0,0.0,0.0,"(0.0, 0.0, 0.0, 0.0, 0.0, 0.0, 0.0, 0.0, 0.0)"
2019/10/07/19:14:14.988642,3963,1570443254,988267184,gyro_link,0.0,0.0,0.949753769132,0.312998047948,"(1.7976931348623157e+308, 0.0, 0.0, 0.0, 1.7976931348623157e+308, 0.0, 0.0, 0.0, 0.05)",0.0,0.0,0.0165806278939,"(1.7976931348623157e+308, 0.0, 0.0, 0.0, 1.7976931348623157e+308, 0.0, 0.0, 0.0, 0.05)",0.0,0.0,0.0,"(0.0, 0.0, 0.0, 0.0, 0.0, 0.0, 0.0, 0.0, 0.0)"
2019/10/07/19:14:15.046646,3964,1570443255,46053739,gyro_link,0.0,0.0,0.949507648137,0.313743886201,"(1.7976931348623157e+308, 0.0, 0.0, 0.0, 1.7976931348623157e+308, 0.0, 0.0, 0.0, 0.05)",0.0,0.0,0.00296705972839,"(1.7976931348623157e+308, 0.0, 0.0, 0.0, 1.7976931348623157e+308, 0.0, 0.0, 0.0, 0.05)",0.0,0.0,0.0,"(0.0, 0.0, 0.0, 0.0, 0.0, 0.0, 0.0, 0.0, 0.0)"
2019/10/07/19:14:15.068257,3965,1570443255,68044401,gyro_link,0.0,0.0,0.949535023841,0.313661024833,"(1.7976931348623157e+308, 0.0, 0.0, 0.0, 1.7976931348623157e+308, 0.0, 0.0, 0.0, 0.05)",0.0,0.0,0.00698131700798,"(1.7976931348623157e+308, 0.0, 0.0, 0.0, 1.7976931348623157e+308, 0.0, 0.0, 0.0, 0.05)",0.0,0.0,0.0,"(0.0, 0.0, 0.0, 0.0, 0.0, 0.0, 0.0, 0.0, 0.0)"
2019/10/07/19:14:15.126393,3966,1570443255,125858408,gyro_link,0.0,0.0,0.94937066116,0.31415815719,"(1.7976931348623157e+308, 0.0, 0.0, 0.0, 1.7976931348623157e+308, 0.0, 0.0, 0.0, 0.05)",0.0,0.0,-0.0181514242207,"(1.7976931348623157e+308, 0.0, 0.0, 0.0, 1.7976931348623157e+308, 0.0, 0.0, 0.0, 0.05)",0.0,0.0,0.0,"(0.0, 0.0, 0.0, 0.0, 0.0, 0.0, 0.0, 0.0, 0.0)"
2019/10/07/19:14:15.148610,3967,1570443255,147960906,gyro_link,0.0,0.0,0.949425477642,0.313992455967,"(1.7976931348623157e+308, 0.0, 0.0, 0.0, 1.7976931348623157e+308, 0.0, 0.0, 0.0, 0.05)",0.0,0.0,0.0307177948351,"(1.7976931348623157e+308, 0.0, 0.0, 0.0, 1.7976931348623157e+308, 0.0, 0.0, 0.0, 0.05)",0.0,0.0,0.0,"(0.0, 0.0, 0.0, 0.0, 0.0, 0.0, 0.0, 0.0, 0.0)"
2019/10/07/19:14:15.206348,3968,1570443255,205676175,gyro_link,0.0,0.0,0.949507648137,0.313743886201,"(1.7976931348623157e+308, 0.0, 0.0, 0.0, 1.7976931348623157e+308, 0.0, 0.0, 0.0, 0.05)",0.0,0.0,-0.0558505360638,"(1.7976931348623157e+308, 0.0, 0.0, 0.0, 1.7976931348623157e+308, 0.0, 0.0, 0.0, 0.05)",0.0,0.0,0.0,"(0.0, 0.0, 0.0, 0.0, 0.0, 0.0, 0.0, 0.0, 0.0)"
2019/10/07/19:14:15.227933,3969,1570443255,227503146,gyro_link,0.0,0.0,0.94937066116,0.31415815719,"(1.7976931348623157e+308, 0.0, 0.0, 0.0, 1.7976931348623157e+308, 0.0, 0.0, 0.0, 0.05)",0.0,0.0,-0.0338593874887,"(1.7976931348623157e+308, 0.0, 0.0, 0.0, 1.7976931348623157e+308, 0.0, 0.0, 0.0, 0.05)",0.0,0.0,0.0,"(0.0, 0.0, 0.0, 0.0, 0.0, 0.0, 0.0, 0.0, 0.0)"
