,row_id,series_id,measurement_number,orientation_X,orientation_Y,orientation_Z,orientation_W,angular_velocity_X,angular_velocity_Y,angular_velocity_Z,linear_acceleration_X,linear_acceleration_Y,linear_acceleration_Z
0,0_0,0,0,0.0,0.0,0.977856347869,0.209277239403,0.0,0.0,0.00244346095279,0.0,0.0,0.0
1,0_1,0,1,0.0,0.0,0.977856347869,0.209277239403,0.0,0.0,0.0005235987755980001,0.0,0.0,0.0
2,0_2,0,2,0.0,0.0,0.97787460703,0.20919190454199998,0.0,0.0,0.000872664625997,0.0,0.0,0.0
3,0_3,0,3,0.0,0.0,0.97787460703,0.20919190454199998,0.0,0.0,0.00174532925199,0.0,0.0,0.0
4,0_4,0,4,0.0,0.0,0.977892858744,0.20910656808800002,0.0,0.0,0.00977384381117,0.0,0.0,0.0
5,0_5,0,5,0.0,0.0,0.977892858744,0.20910656808800002,0.0,0.0,0.004014257279590001,0.0,0.0,0.0
6,0_6,0,6,0.0,0.0,0.97787460703,0.20919190454199998,0.0,0.0,-0.011344640138,0.0,0.0,0.0
7,0_7,0,7,0.0,0.0,0.97787460703,0.20919190454199998,0.0,0.0,0.00296705972839,0.0,0.0,0.0
8,0_8,0,8,0.0,0.0,0.97787460703,0.20919190454199998,0.0,0.0,-0.00680678408278,0.0,0.0,0.0
9,0_9,0,9,0.0,0.0,0.977801525706,0.209533234422,0.0,0.0,-0.0101229096616,0.0,0.0,0.0
10,0_10,0,10,0.0,0.0,0.9777832367589999,0.209618562904,0.0,0.0,-0.0129154364648,0.0,0.0,0.0
11,0_11,0,11,0.0,0.0,0.977801525706,0.209533234422,0.0,0.0,0.0157079632679,0.0,0.0,0.0
12,0_12,0,12,0.0,0.0,0.977801525706,0.209533234422,0.0,0.0,-0.013788101090799998,0.0,0.0,0.0
13,0_13,0,13,0.0,0.0,0.977563188623,0.210642379992,0.0,0.0,-0.0383972435439,0.0,0.0,0.0
14,0_14,0,14,0.0,0.0,0.977618301168,0.210386447332,0.0,0.0,0.036826447217099996,0.0,0.0,0.0
15,0_15,0,15,0.0,0.0,0.977636657127,0.21030113324000002,0.0,0.0,-0.011868238913600001,0.0,0.0,0.0
16,0_16,0,16,0.0,0.0,0.977599937765,0.210471759821,0.0,0.0,-0.009250245035569999,0.0,0.0,0.0
17,0_17,0,17,0.0,0.0,0.9774896010070001,0.210983601077,0.0,0.0,-0.00279252680319,0.0,0.0,0.0
18,0_18,0,18,0.0,0.0,0.9775264097040001,0.21081299374499998,0.0,0.0,0.0204203522483,0.0,0.0,0.0
19,0_19,0,19,0.0,0.0,0.977471185492,0.211068902334,0.0,0.0,-0.0164060949687,0.0,0.0,0.0
20,0_20,0,20,0.0,0.0,0.977434332132,0.21123950002300002,0.0,0.0,-0.00174532925199,0.0,0.0,0.0
21,0_21,0,21,0.0,0.0,0.9773789962639999,0.211495384491,0.0,0.0,-0.0305432619099,0.0,0.0,0.0
22,0_22,0,22,0.0,0.0,0.97734206847,0.21166596608399998,0.0,0.0,0.0240855436775,0.0,0.0,0.0
23,0_23,0,23,0.0,0.0,0.977323593409,0.211751254463,0.0,0.0,0.0193731546971,0.0,0.0,0.0
24,0_24,0,24,0.0,0.0,0.977360536089,0.211580676093,0.0,0.0,0.0127409035396,0.0,0.0,0.0
25,0_25,0,25,0.0,0.0,0.977434332132,0.21123950002300002,0.0,0.0,0.0274016692563,0.0,0.0,0.0
26,0_26,0,26,0.0,0.0,0.9772681235680001,0.21200710992199998,0.0,0.0,-0.0237364778271,0.0,0.0,0.0
27,0_27,0,27,0.0,0.0,0.9772496187369999,0.21209239184700002,0.0,0.0,-0.00645771823238,0.0,0.0,0.0
28,0_28,0,28,0.0,0.0,0.977119876542,0.212689320059,0.0,0.0,-0.0132645023152,0.0,0.0,0.0
29,0_29,0,29,0.0,0.0,0.977175524989,0.212433503388,0.0,0.0,0.0267035375555,0.0,0.0,0.0
30,0_30,0,30,0.0,0.0,0.9771384334659999,0.212604049454,0.0,0.0,-0.00645771823238,0.0,0.0,0.0
31,0_31,0,31,0.0,0.0,0.9771384334659999,0.212604049454,0.0,0.0,0.00418879020479,0.0,0.0,0.0
32,0_32,0,32,0.0,0.0,0.977064161123,0.21294512215300002,0.0,0.0,0.0109955742876,0.0,0.0,0.0
33,0_33,0,33,0.0,0.0,0.977064161123,0.21294512215300002,0.0,0.0,-0.004014257279590001,0.0,0.0,0.0
34,0_34,0,34,0.0,0.0,0.977156982948,0.21251877723,0.0,0.0,-0.00366519142919,0.0,0.0,0.0
35,0_35,0,35,0.0,0.0,0.9771940595890001,0.212348227928,0.0,0.0,-0.00296705972839,0.0,0.0,0.0
36,0_36,0,36,0.0,0.0,0.9771940595890001,0.212348227928,0.0,0.0,-0.004363323129989999,0.0,0.0,0.0
37,0_37,0,37,0.0,0.0,0.977119876542,0.212689320059,0.0,0.0,0.0183259571459,0.0,0.0,0.0
38,0_38,0,38,0.0,0.0,0.977119876542,0.212689320059,0.0,0.0,-0.00855211333477,0.0,0.0,0.0
39,0_39,0,39,0.0,0.0,0.977064161123,0.21294512215300002,0.0,0.0,-0.0125663706144,0.0,0.0,0.0
40,0_40,0,40,0.0,0.0,0.977008378738,0.213200909652,0.0,0.0,-0.0240855436775,0.0,0.0,0.0
41,0_41,0,41,0.0,0.0,0.9769152592899999,0.213627189669,0.0,0.0,-0.00977384381117,0.0,0.0,0.0
42,0_42,0,42,0.0,0.0,0.9768779594329999,0.213797690292,0.0,0.0,-0.0204203522483,0.0,0.0,0.0
43,0_43,0,43,0.0,0.0,0.976840629818,0.213968184403,0.0,0.0,-0.013962634016,0.0,0.0,0.0
44,0_44,0,44,0.0,0.0,0.976803270447,0.21413867199499997,0.0,0.0,-0.005759586531579999,0.0,0.0,0.0
45,0_45,0,45,0.0,0.0,0.976803270447,0.21413867199499997,0.0,0.0,0.0005235987755980001,0.0,0.0,0.0
46,0_46,0,46,0.0,0.0,0.976784579603,0.21422391334600002,0.0,0.0,0.000174532925199,0.0,0.0,0.0
47,0_47,0,47,0.0,0.0,0.9766722783339999,0.214735327167,0.0,0.0,-0.0127409035396,0.0,0.0,0.0
48,0_48,0,48,0.0,0.0,0.9766722783339999,0.214735327167,0.0,0.0,-0.00453785605519,0.0,0.0,0.0
49,0_49,0,49,0.0,0.0,0.9767097418430001,0.21456486242800002,0.0,0.0,-0.00261799387799,0.0,0.0,0.0
50,0_50,0,50,0.0,0.0,0.976634785074,0.214905785365,0.0,0.0,-0.0239110107523,0.0,0.0,0.0
51,0_51,0,51,0.0,0.0,0.9765972620640001,0.215076237017,0.0,0.0,-0.0109955742876,0.0,0.0,0.0
52,0_52,0,52,0.0,0.0,0.9765972620640001,0.215076237017,0.0,0.0,0.017278759594700002,0.0,0.0,0.0
53,0_53,0,53,0.0,0.0,0.97654092177,0.215331902209,0.0,0.0,-0.008028514559169999,0.0,0.0,0.0
54,0_54,0,54,0.0,0.0,0.97650332439,0.215502337472,0.0,0.0,-0.0225147473507,0.0,0.0,0.0
55,0_55,0,55,0.0,0.0,0.976522126798,0.21541712066100002,0.0,0.0,0.000872664625997,0.0,0.0,0.0
56,0_56,0,56,0.0,0.0,0.976522126798,0.21541712066100002,0.0,0.0,0.00296705972839,0.0,0.0,0.0
57,0_57,0,57,0.0,0.0,0.976446872546,0.215757978057,0.0,0.0,-0.023387411976700002,0.0,0.0,0.0
58,0_58,0,58,0.0,0.0,0.9764280403929999,0.215843188299,0.0,0.0,-0.00610865238198,0.0,0.0,0.0
59,0_59,0,59,0.0,0.0,0.976333768089,0.216269214844,0.0,0.0,-0.0207694180987,0.0,0.0,0.0
60,0_60,0,60,0.0,0.0,0.976314891322,0.21635441521499998,0.0,0.0,-0.00226892802759,0.0,0.0,0.0
61,0_61,0,61,0.0,0.0,0.976352637421,0.21618401282699998,0.0,0.0,0.00628318530718,0.0,0.0,0.0
62,0_62,0,62,0.0,0.0,0.9762014745890001,0.216865582816,0.0,0.0,-0.0158824961931,0.0,0.0,0.0
63,0_63,0,63,0.0,0.0,0.97618254578,0.21695077164,0.0,0.0,0.00628318530718,0.0,0.0,0.0
64,0_64,0,64,0.0,0.0,0.9762393099050001,0.216695200215,0.0,0.0,0.00994837673637,0.0,0.0,0.0
65,0_65,0,65,0.0,0.0,0.976144665859,0.21712114433000002,0.0,0.0,-0.0197222205475,0.0,0.0,0.0
66,0_66,0,66,0.0,0.0,0.9761067562029999,0.217291510406,0.0,0.0,-0.0115191730632,0.0,0.0,0.0
67,0_67,0,67,0.0,0.0,0.976068816814,0.21746186986299998,0.0,0.0,-0.0111701072128,0.0,0.0,0.0
68,0_68,0,68,0.0,0.0,0.9760877902249999,0.21737669096200002,0.0,0.0,0.0207694180987,0.0,0.0,0.0
69,0_69,0,69,0.0,0.0,0.9760877902249999,0.21737669096200002,0.0,0.0,-0.0230383461263,0.0,0.0,0.0
70,0_70,0,70,0.0,0.0,0.975992848837,0.217802568899,0.0,0.0,-0.0101229096616,0.0,0.0,0.0
71,0_71,0,71,0.0,0.0,0.9758977216339999,0.21822840536899998,0.0,0.0,0.004014257279590001,0.0,0.0,0.0
72,0_72,0,72,0.0,0.0,0.975954820253,0.217972908468,0.0,0.0,0.00872664625997,0.0,0.0,0.0
73,0_73,0,73,0.0,0.0,0.975859618728,0.21839872832899998,0.0,0.0,-0.012217304764,0.0,0.0,0.0
74,0_74,0,74,0.0,0.0,0.975878673897,0.21831356768000004,0.0,0.0,0.0116937059884,0.0,0.0,0.0
75,0_75,0,75,0.0,0.0,0.975840556128,0.218483887314,0.0,0.0,-0.0115191730632,0.0,0.0,0.0
76,0_76,0,76,0.0,0.0,0.9757642314139999,0.21882450661,0.0,0.0,-0.010821041362399999,0.0,0.0,0.0
77,0_77,0,77,0.0,0.0,0.975687787806,0.219165099243,0.0,0.0,0.000698131700798,0.0,0.0,0.0
78,0_78,0,78,0.0,0.0,0.975726024471,0.21899480626200002,0.0,0.0,-0.014137166941200001,0.0,0.0,0.0
79,0_79,0,79,0.0,0.0,0.975687787806,0.219165099243,0.0,0.0,-0.015533430342700001,0.0,0.0,0.0
80,0_80,0,80,0.0,0.0,0.9755920661159999,0.21959080247499999,0.0,0.0,-0.00314159265359,0.0,0.0,0.0
81,0_81,0,81,0.0,0.0,0.975553725432,0.21976107206700002,0.0,0.0,0.0102974425868,0.0,0.0,0.0
82,0_82,0,82,0.0,0.0,0.975553725432,0.21976107206700002,0.0,0.0,-0.00680678408278,0.0,0.0,0.0
83,0_83,0,83,0.0,0.0,0.975496158687,0.220016463901,0.0,0.0,-0.0171042266695,0.0,0.0,0.0
84,0_84,0,84,0.0,0.0,0.975438525082,0.220271840655,0.0,0.0,0.00610865238198,0.0,0.0,0.0
85,0_85,0,85,0.0,0.0,0.975457743712,0.220186716747,0.0,0.0,0.00855211333477,0.0,0.0,0.0
86,0_86,0,86,0.0,0.0,0.975400065537,0.220442083439,0.0,0.0,-0.0129154364648,0.0,0.0,0.0
87,0_87,0,87,0.0,0.0,0.975400065537,0.220442083439,0.0,0.0,-0.0038397243543899996,0.0,0.0,0.0
88,0_88,0,88,0.0,0.0,0.975419299024,0.220356962886,0.0,0.0,0.00314159265359,0.0,0.0,0.0
89,0_89,0,89,0.0,0.0,0.975400065537,0.220442083439,0.0,0.0,-0.0181514242207,0.0,0.0,0.0
90,0_90,0,90,0.0,0.0,0.97532305731,0.22078254885499998,0.0,0.0,0.0050614548307799994,0.0,0.0,0.0
91,0_91,0,91,0.0,0.0,0.9753423205089999,0.220697435022,0.0,0.0,-0.000349065850399,0.0,0.0,0.0
92,0_92,0,92,0.0,0.0,0.9751686843459999,0.221463398941,0.0,0.0,-0.0232128790515,0.0,0.0,0.0
93,0_93,0,93,0.0,0.0,0.975207322148,0.22129319652600002,0.0,0.0,0.0207694180987,0.0,0.0,0.0
94,0_94,0,94,0.0,0.0,0.975226629909,0.22120809279,0.0,0.0,-0.027227136331099997,0.0,0.0,0.0
95,0_95,0,95,0.0,0.0,0.975052592713,0.221973965689,0.0,0.0,-0.0198967534727,0.0,0.0,0.0
96,0_96,0,96,0.0,0.0,0.975110671946,0.22171868991399998,0.0,0.0,0.026354471705099997,0.0,0.0,0.0
97,0_97,0,97,0.0,0.0,0.975149354306,0.221548497619,0.0,0.0,0.012042771838799999,0.0,0.0,0.0
98,0_98,0,98,0.0,0.0,0.9750332181170001,0.22205905423500003,0.0,0.0,-0.03473205211469999,0.0,0.0,0.0
99,0_99,0,99,0.0,0.0,0.9749362337630001,0.222484471582,0.0,0.0,-0.0216420827247,0.0,0.0,0.0
100,0_100,0,100,0.0,0.0,0.9749362337630001,0.222484471582,0.0,0.0,0.0291469985083,0.0,0.0,0.0
101,0_101,0,101,0.0,0.0,0.9749750497799998,0.22231430972199998,0.0,0.0,-0.0205948851735,0.0,0.0,0.0
102,0_102,0,102,0.0,0.0,0.9748390637950001,0.22290984657200003,0.0,0.0,-0.0169296937443,0.0,0.0,0.0
103,0_103,0,103,0.0,0.0,0.97480014384,0.22307998468899998,0.0,0.0,-0.012217304764,0.0,0.0,0.0
104,0_104,0,104,0.0,0.0,0.974780672727,0.22316505120000002,0.0,0.0,-0.00418879020479,0.0,0.0,0.0
105,0_105,0,105,0.0,0.0,0.974741708232,0.223335179122,0.0,0.0,-0.0038397243543899996,0.0,0.0,0.0
106,0_106,0,106,0.0,0.0,0.974761194191,0.223250116011,0.0,0.0,0.006632251157579999,0.0,0.0,0.0
107,0_107,0,107,0.0,0.0,0.974761194191,0.223250116011,0.0,0.0,-0.009250245035569999,0.0,0.0,0.0
108,0_108,0,108,0.0,0.0,0.974722214849,0.223420240532,0.0,0.0,-0.017453292519900004,0.0,0.0,0.0
109,0_109,0,109,0.0,0.0,0.9746636901639999,0.22367541455200002,0.0,0.0,-0.004363323129989999,0.0,0.0,0.0
110,0_110,0,110,0.0,0.0,0.9745660005750001,0.224100670509,0.0,0.0,-0.015533430342700001,0.0,0.0,0.0
111,0_111,0,111,0.0,0.0,0.9745464403919999,0.22418571658300002,0.0,0.0,-0.00244346095279,0.0,0.0,0.0
112,0_112,0,112,0.0,0.0,0.974585553337,0.224015622728,0.0,0.0,0.0038397243543899996,0.0,0.0,0.0
113,0_113,0,113,0.0,0.0,0.974585553337,0.224015622728,0.0,0.0,0.00296705972839,0.0,0.0,0.0
114,0_114,0,114,0.0,0.0,0.974605098677,0.223930573241,0.0,0.0,-0.007679448708779999,0.0,0.0,0.0
115,0_115,0,115,0.0,0.0,0.9745072977600001,0.224355803608,0.0,0.0,-0.010821041362399999,0.0,0.0,0.0
116,0_116,0,116,0.0,0.0,0.9745464403919999,0.22418571658300002,0.0,0.0,0.008028514559169999,0.0,0.0,0.0
117,0_117,0,117,0.0,0.0,0.9744877153120001,0.224440844558,0.0,0.0,-0.011868238913600001,0.0,0.0,0.0
118,0_118,0,118,0.0,0.0,0.97440931131,0.224780991261,0.0,0.0,-0.00244346095279,0.0,0.0,0.0
119,0_119,0,119,0.0,0.0,0.974448528153,0.224610921331,0.0,0.0,-0.010471975512,0.0,0.0,0.0
120,0_120,0,120,0.0,0.0,0.974291482694,0.225291159947,0.0,0.0,-0.012042771838799999,0.0,0.0,0.0
121,0_121,0,121,0.0,0.0,0.9742718186210001,0.225376182061,0.0,0.0,0.00226892802759,0.0,0.0,0.0
122,0_122,0,122,0.0,0.0,0.974311139346,0.225206136118,0.0,0.0,-0.007679448708779999,0.0,0.0,0.0
123,0_123,0,123,0.0,0.0,0.9742324682179999,0.225546221138,0.0,0.0,-0.00715584993318,0.0,0.0,0.0
124,0_124,0,124,0.0,0.0,0.9742127818880001,0.2256312381,0.0,0.0,-0.00977384381117,0.0,0.0,0.0
125,0_125,0,125,0.0,0.0,0.974114238953,0.226056297124,0.0,0.0,-0.00174532925199,0.0,0.0,0.0
126,0_126,0,126,0.0,0.0,0.9740945081100001,0.22614130376699998,0.0,0.0,-0.009250245035569999,0.0,0.0,0.0
127,0_127,0,127,0.0,0.0,0.974074769849,0.226226308688,0.0,0.0,-0.015533430342700001,0.0,0.0,0.0
128,0_128,0,128,0.0,0.0,0.974035271074,0.226396313361,0.0,0.0,0.010471975512,0.0,0.0,0.0
129,1_0,1,0,0.0,0.0,0.974035271074,0.226396313361,0.0,0.0,0.006632251157579999,0.0,0.0,0.0
130,1_1,1,1,0.0,0.0,0.974055024171,0.226311311886,0.0,0.0,0.0033161255787899995,0.0,0.0,0.0
131,1_2,1,2,0.0,0.0,0.9740155105600001,0.22648131311099998,0.0,0.0,-0.010471975512,0.0,0.0,0.0
132,1_3,1,3,0.0,0.0,0.9740155105600001,0.22648131311099998,0.0,0.0,0.00174532925199,0.0,0.0,0.0
133,1_4,1,4,0.0,0.0,0.9739363943289999,0.226821294859,0.0,0.0,-0.008028514559169999,0.0,0.0,0.0
134,1_5,1,5,0.0,0.0,0.9739165967290001,0.226906285979,0.0,0.0,-0.009250245035569999,0.0,0.0,0.0
135,1_6,1,6,0.0,0.0,0.9738967917110001,0.22699127537099997,0.0,0.0,-0.000698131700798,0.0,0.0,0.0
136,1_7,1,7,0.0,0.0,0.973876979277,0.227076263034,0.0,0.0,-0.00628318530718,0.0,0.0,0.0
137,1_8,1,8,0.0,0.0,0.9738967917110001,0.22699127537099997,0.0,0.0,-0.0010471975512,0.0,0.0,0.0
138,1_9,1,9,0.0,0.0,0.97383733216,0.227246233173,0.0,0.0,-0.014311699866400001,0.0,0.0,0.0
139,1_10,1,10,0.0,0.0,0.9738174974770001,0.227331215647,0.0,0.0,-0.00820304748437,0.0,0.0,0.0
140,1_11,1,11,0.0,0.0,0.973876979277,0.227076263034,0.0,0.0,0.0204203522483,0.0,0.0,0.0
141,1_12,1,12,0.0,0.0,0.9738174974770001,0.227331215647,0.0,0.0,-0.0214675497995,0.0,0.0,0.0
142,1_13,1,13,0.0,0.0,0.9737579489329999,0.227586152678,0.0,0.0,-0.022863813201099998,0.0,0.0,0.0
143,1_14,1,14,0.0,0.0,0.973718212825,0.227756102034,0.0,0.0,0.009250245035569999,0.0,0.0,0.0
144,1_15,1,15,0.0,0.0,0.9737579489329999,0.227586152678,0.0,0.0,0.0167551608191,0.0,0.0,0.0
145,1_16,1,16,0.0,0.0,0.9737579489329999,0.227586152678,0.0,0.0,-0.0249582083035,0.0,0.0,0.0
146,1_17,1,17,0.0,0.0,0.9735789028730001,0.22835087011100003,0.0,0.0,-0.015358897417600001,0.0,0.0,0.0
147,1_18,1,18,0.0,0.0,0.9736585530480001,0.22801101305799998,0.0,0.0,0.0205948851735,0.0,0.0,0.0
148,1_19,1,19,0.0,0.0,0.9736784470550001,0.227926044452,0.0,0.0,-0.0160570291183,0.0,0.0,0.0
149,1_20,1,20,0.0,0.0,0.9735390333,0.228520788206,0.0,0.0,-0.00855211333477,0.0,0.0,0.0
150,1_21,1,21,0.0,0.0,0.973479173335,0.22877565229400001,0.0,0.0,-0.015358897417600001,0.0,0.0,0.0
151,1_22,1,22,0.0,0.0,0.9734991340700001,0.228690699339,0.0,0.0,-0.000174532925199,0.0,0.0,0.0
152,1_23,1,23,0.0,0.0,0.973399256261,0.22911544668499997,0.0,0.0,-0.013962634016,0.0,0.0,0.0
153,1_24,1,24,0.0,0.0,0.973319220582,0.22945521315900003,0.0,0.0,-0.00157079632679,0.0,0.0,0.0
154,1_25,1,25,0.0,0.0,0.973359253247,0.229285333414,0.0,0.0,0.00837758040957,0.0,0.0,0.0
155,1_26,1,26,0.0,0.0,0.973339240621,0.22937027415999997,0.0,0.0,-0.0216420827247,0.0,0.0,0.0
156,1_27,1,27,0.0,0.0,0.9731788727770001,0.230049737188,0.0,0.0,-0.0198967534727,0.0,0.0,0.0
157,1_28,1,28,0.0,0.0,0.973198944698,0.229964810435,0.0,0.0,0.015533430342700001,0.0,0.0,0.0
158,1_29,1,29,0.0,0.0,0.973259115993,0.22971001966899998,0.0,0.0,0.000349065850399,0.0,0.0,0.0
159,1_30,1,30,0.0,0.0,0.973219009208,0.22987988193000003,0.0,0.0,-0.00837758040957,0.0,0.0,0.0
160,1_31,1,31,0.0,0.0,0.973198944698,0.229964810435,0.0,0.0,-0.00418879020479,0.0,0.0,0.0
161,1_32,1,32,0.0,0.0,0.9731788727770001,0.230049737188,0.0,0.0,0.00872664625997,0.0,0.0,0.0
162,1_33,1,33,0.0,0.0,0.973198944698,0.229964810435,0.0,0.0,0.0136135681656,0.0,0.0,0.0
163,1_34,1,34,0.0,0.0,0.973259115993,0.22971001966899998,0.0,0.0,-0.00855211333477,0.0,0.0,0.0
164,1_35,1,35,0.0,0.0,0.973219009208,0.22987988193000003,0.0,0.0,-0.0254818070791,0.0,0.0,0.0
165,1_36,1,36,0.0,0.0,0.973098510982,0.230389426677,0.0,0.0,0.0343829862643,0.0,0.0,0.0
166,1_37,1,37,0.0,0.0,0.9735789028730001,0.22835087011100003,0.0,0.0,0.04136430327230001,0.0,0.0,0.0
167,1_38,1,38,0.0,0.0,0.9736784470550001,0.227926044452,0.0,0.0,0.041189770347099995,0.0,0.0,0.0
168,1_39,1,39,0.0,0.0,0.973359253247,0.229285333414,0.0,0.0,-0.061261056745,0.0,0.0,0.0
169,1_40,1,40,0.0,0.0,0.9732390663060001,0.229794951674,0.0,0.0,-0.0523598775598,0.0,0.0,0.0
170,1_41,1,41,0.0,0.0,0.973118612547,0.23030450693500001,0.0,0.0,0.046251225177800004,0.0,0.0,0.0
171,1_42,1,42,0.0,0.0,0.973279158268,0.22962508591400002,0.0,0.0,0.00279252680319,0.0,0.0,0.0
172,1_43,1,43,0.0,0.0,0.9730582856209999,0.230559260896,0.0,0.0,-0.0335103216383,0.0,0.0,0.0
173,1_44,1,44,0.0,0.0,0.9730180306180001,0.23072908809300002,0.0,0.0,-0.00645771823238,0.0,0.0,0.0
174,1_45,1,45,0.0,0.0,0.973038161824,0.23064417537300003,0.0,0.0,0.0005235987755980001,0.0,0.0,0.0
175,1_46,1,46,0.0,0.0,0.9730582856209999,0.230559260896,0.0,0.0,-0.0101229096616,0.0,0.0,0.0
176,1_47,1,47,0.0,0.0,0.972977745976,0.23089890826099999,0.0,0.0,-0.0019198621771900001,0.0,0.0,0.0
177,1_48,1,48,0.0,0.0,0.972977745976,0.23089890826099999,0.0,0.0,-0.0144862327916,0.0,0.0,0.0
178,1_49,1,49,0.0,0.0,0.97291726344,0.231153625323,0.0,0.0,-0.00226892802759,0.0,0.0,0.0
179,1_50,1,50,0.0,0.0,0.972876904704,0.231323427898,0.0,0.0,-0.004363323129989999,0.0,0.0,0.0
180,1_51,1,51,0.0,0.0,0.9728567142219999,0.231408326543,0.0,0.0,0.0116937059884,0.0,0.0,0.0
181,1_52,1,52,0.0,0.0,0.972836516331,0.23149322342599998,0.0,0.0,-0.004363323129989999,0.0,0.0,0.0
182,1_53,1,53,0.0,0.0,0.9727354157539999,0.231917681383,0.0,0.0,-0.034906585039900004,0.0,0.0,0.0
183,1_54,1,54,0.0,0.0,0.9727151734139999,0.23200256767900002,0.0,0.0,0.0111701072128,0.0,0.0,0.0
184,1_55,1,55,0.0,0.0,0.9727151734139999,0.23200256767900002,0.0,0.0,0.004014257279590001,0.0,0.0,0.0
185,1_56,1,56,0.0,0.0,0.97265440195,0.232257215962,0.0,0.0,-0.0019198621771900001,0.0,0.0,0.0
186,1_57,1,57,0.0,0.0,0.97265440195,0.232257215962,0.0,0.0,-0.00226892802759,0.0,0.0,0.0
187,1_58,1,58,0.0,0.0,0.97265440195,0.232257215962,0.0,0.0,-0.00261799387799,0.0,0.0,0.0
188,1_59,1,59,0.0,0.0,0.972552968036,0.232681594384,0.0,0.0,-0.00715584993318,0.0,0.0,0.0
189,1_60,1,60,0.0,0.0,0.972532659033,0.23276646475499999,0.0,0.0,-0.006981317007979999,0.0,0.0,0.0
190,1_61,1,61,0.0,0.0,0.9725732696320001,0.232596722241,0.0,0.0,0.00418879020479,0.0,0.0,0.0
191,1_62,1,62,0.0,0.0,0.9725732696320001,0.232596722241,0.0,0.0,0.0010471975512,0.0,0.0,0.0
192,1_63,1,63,0.0,0.0,0.972471687587,0.233021065231,0.0,0.0,-0.0197222205475,0.0,0.0,0.0
193,1_64,1,64,0.0,0.0,0.97245134896,0.233105928507,0.0,0.0,-0.00418879020479,0.0,0.0,0.0
194,1_65,1,65,0.0,0.0,0.972492018808,0.23293620017900002,0.0,0.0,0.013962634016,0.0,0.0,0.0
195,1_66,1,66,0.0,0.0,0.972471687587,0.233021065231,0.0,0.0,-0.029670597283900004,0.0,0.0,0.0
196,1_67,1,67,0.0,0.0,0.9723902886460001,0.233360507684,0.0,0.0,-0.030717794835099996,0.0,0.0,0.0
197,1_68,1,68,0.0,0.0,0.9723291616859999,0.23361507086599997,0.0,0.0,0.00628318530718,0.0,0.0,0.0
198,1_69,1,69,0.0,0.0,0.9723291616859999,0.23361507086599997,0.0,0.0,-0.010646508437200001,0.0,0.0,0.0
199,1_70,1,70,0.0,0.0,0.972308771222,0.233699921703,0.0,0.0,-0.012042771838799999,0.0,0.0,0.0
200,1_71,1,71,0.0,0.0,0.9722679680830001,0.233869618037,0.0,0.0,-0.0164060949687,0.0,0.0,0.0
201,1_72,1,72,0.0,0.0,0.9722067078409999,0.234124149178,0.0,0.0,-0.00244346095279,0.0,0.0,0.0
202,1_73,1,73,0.0,0.0,0.9721862729530001,0.23420898932700002,0.0,0.0,0.0134390352404,0.0,0.0,0.0
203,1_74,1,74,0.0,0.0,0.972145380966,0.234378664273,0.0,0.0,-0.009075712110370001,0.0,0.0,0.0
204,1_75,1,75,0.0,0.0,0.972043021443,0.23480282039099998,0.0,0.0,-0.0230383461263,0.0,0.0,0.0
205,1_76,1,76,0.0,0.0,0.9720225273309999,0.234887646252,0.0,0.0,0.00488692190558,0.0,0.0,0.0
206,1_77,1,77,0.0,0.0,0.9720225273309999,0.234887646252,0.0,0.0,-0.00820304748437,0.0,0.0,0.0
207,1_78,1,78,0.0,0.0,0.9720225273309999,0.234887646252,0.0,0.0,-0.00820304748437,0.0,0.0,0.0
208,1_79,1,79,0.0,0.0,0.972043021443,0.23480282039099998,0.0,0.0,-0.00558505360638,0.0,0.0,0.0
209,1_80,1,80,0.0,0.0,0.9719610005789999,0.235142113103,0.0,0.0,-0.0116937059884,0.0,0.0,0.0
210,1_81,1,81,0.0,0.0,0.971940476857,0.235226931805,0.0,0.0,0.014835298642,0.0,0.0,0.0
211,1_82,1,82,0.0,0.0,0.9719815168979999,0.235057292609,0.0,0.0,0.00523598775598,0.0,0.0,0.0
212,1_83,1,83,0.0,0.0,0.971940476857,0.235226931805,0.0,0.0,-0.0176278254451,0.0,0.0,0.0
213,1_84,1,84,0.0,0.0,0.9718583079559999,0.235566188697,0.0,0.0,0.013089969390000001,0.0,0.0,0.0
214,1_85,1,85,0.0,0.0,0.971899407209,0.235396563836,0.0,0.0,0.0129154364648,0.0,0.0,0.0
215,1_86,1,86,0.0,0.0,0.9719199457340001,0.235311748717,0.0,0.0,-0.012042771838799999,0.0,0.0,0.0
216,1_87,1,87,0.0,0.0,0.9718788612829999,0.235481377163,0.0,0.0,-0.0219911485751,0.0,0.0,0.0
217,1_88,1,88,0.0,0.0,0.971755430305,0.235990219443,0.0,0.0,-0.013962634016,0.0,0.0,0.0
218,1_89,1,89,0.0,0.0,0.9717348325730001,0.236075020203,0.0,0.0,-0.008901179185170001,0.0,0.0,0.0
219,1_90,1,90,0.0,0.0,0.9717760206370001,0.235905416885,0.0,0.0,-0.0034906585039899997,0.0,0.0,0.0
220,1_91,1,91,0.0,0.0,0.9717348325730001,0.236075020203,0.0,0.0,-0.017278759594700002,0.0,0.0,0.0
221,1_92,1,92,0.0,0.0,0.9716729949770001,0.23632941169399999,0.0,0.0,-0.00855211333477,0.0,0.0,0.0
222,1_93,1,93,0.0,0.0,0.971611090784,0.236583786987,0.0,0.0,0.00226892802759,0.0,0.0,0.0
223,1_94,1,94,0.0,0.0,0.971631732915,0.23649899702399999,0.0,0.0,0.00558505360638,0.0,0.0,0.0
224,1_95,1,95,0.0,0.0,0.9715904412540001,0.236668575149,0.0,0.0,-0.0116937059884,0.0,0.0,0.0
225,1_96,1,96,0.0,0.0,0.971549119998,0.236838146066,0.0,0.0,0.00680678408278,0.0,0.0,0.0
226,1_97,1,97,0.0,0.0,0.971487082622,0.23709248891100002,0.0,0.0,-0.00314159265359,0.0,0.0,0.0
227,1_98,1,98,0.0,0.0,0.9714663887,0.23717726625,0.0,0.0,-0.0134390352404,0.0,0.0,0.0
228,1_99,1,99,0.0,0.0,0.971342069813,0.237685892326,0.0,0.0,-0.009599310885969999,0.0,0.0,0.0
229,1_100,1,100,0.0,0.0,0.9712590426090001,0.23802494018399997,0.0,0.0,-0.012042771838799999,0.0,0.0,0.0
230,1_101,1,101,0.0,0.0,0.971714227441,0.23615981916499998,0.0,0.0,0.04502949470150001,0.0,0.0,0.0
231,1_102,1,102,0.0,0.0,0.9716523676459999,0.23641420525899998,0.0,0.0,-0.026005405854700004,0.0,0.0,0.0
232,1_103,1,103,0.0,0.0,0.9714456873799999,0.237262041782,0.0,0.0,-0.013089969390000001,0.0,0.0,0.0
233,1_104,1,104,0.0,0.0,0.971507769146,0.237007709767,0.0,0.0,0.013962634016,0.0,0.0,0.0
234,1_105,1,105,0.0,0.0,0.971487082622,0.23709248891100002,0.0,0.0,-0.0249582083035,0.0,0.0,0.0
235,1_106,1,106,0.0,0.0,0.9713628081219999,0.237601125835,0.0,0.0,-0.00471238898038,0.0,0.0,0.0
236,1_107,1,107,0.0,0.0,0.971487082622,0.23709248891100002,0.0,0.0,-0.00453785605519,0.0,0.0,0.0
237,1_108,1,108,0.0,0.0,0.971342069813,0.237685892326,0.0,0.0,-0.0150098315672,0.0,0.0,0.0
238,1_109,1,109,0.0,0.0,0.971300571005,0.237855419878,0.0,0.0,0.008901179185170001,0.0,0.0,0.0
239,1_110,1,110,0.0,0.0,0.971300571005,0.237855419878,0.0,0.0,-0.00977384381117,0.0,0.0,0.0
240,1_111,1,111,0.0,0.0,0.971196694542,0.238279207047,0.0,0.0,-0.0300196631343,0.0,0.0,0.0
241,1_112,1,112,0.0,0.0,0.971092633177,0.238702948851,0.0,0.0,-0.000174532925199,0.0,0.0,0.0
242,1_113,1,113,0.0,0.0,0.971092633177,0.238702948851,0.0,0.0,0.00279252680319,0.0,0.0,0.0
243,1_114,1,114,0.0,0.0,0.9710509568619999,0.23887243285300003,0.0,0.0,-0.00628318530718,0.0,0.0,0.0
244,1_115,1,115,0.0,0.0,0.9710509568619999,0.23887243285300003,0.0,0.0,0.0033161255787899995,0.0,0.0,0.0
245,1_116,1,116,0.0,0.0,0.971009250968,0.239041909578,0.0,0.0,0.005410520681180001,0.0,0.0,0.0
246,1_117,1,117,0.0,0.0,0.970988386929,0.23912664521,0.0,0.0,-0.013962634016,0.0,0.0,0.0
247,1_118,1,118,0.0,0.0,0.970821208427,0.23980446465500002,0.0,0.0,-0.0109955742876,0.0,0.0,0.0
248,1_119,1,119,0.0,0.0,0.970904856829,0.239465569521,0.0,0.0,0.0125663706144,0.0,0.0,0.0
249,1_120,1,120,0.0,0.0,0.970925750445,0.23938084117699998,0.0,0.0,0.0101229096616,0.0,0.0,0.0
250,1_121,1,121,0.0,0.0,0.970821208427,0.23980446465500002,0.0,0.0,-0.009599310885969999,0.0,0.0,0.0
251,1_122,1,122,0.0,0.0,0.970821208427,0.23980446465500002,0.0,0.0,-0.000698131700798,0.0,0.0,0.0
252,1_123,1,123,0.0,0.0,0.970779339866,0.239973901267,0.0,0.0,-0.000698131700798,0.0,0.0,0.0
253,1_124,1,124,0.0,0.0,0.9708630474150001,0.23963502073800003,0.0,0.0,-0.00418879020479,0.0,0.0,0.0
254,1_125,1,125,0.0,0.0,0.970800277843,0.23988918387400002,0.0,0.0,0.00471238898038,0.0,0.0,0.0
255,1_126,1,126,0.0,0.0,0.9708421316179999,0.239719743609,0.0,0.0,0.00453785605519,0.0,0.0,0.0
256,1_127,1,127,0.0,0.0,0.970800277843,0.23988918387400002,0.0,0.0,-0.008028514559169999,0.0,0.0,0.0
257,1_128,1,128,0.0,0.0,0.970758394496,0.24005861683200003,0.0,0.0,-0.0012217304764,0.0,0.0,0.0
258,2_0,2,0,0.0,0.0,0.970674539091,0.240397460805,0.0,0.0,-0.0956440430093,0.0,0.0,0.0
259,2_1,2,1,0.0,0.0,0.9699782200579999,0.24319180210900002,0.0,0.0,-0.0469493568786,0.0,0.0,0.0
260,2_2,2,2,0.0,0.0,0.970232358021,0.24217591013300002,0.0,0.0,0.0375245789179,0.0,0.0,0.0
261,2_3,2,3,0.0,0.0,0.970380113833,0.241583183765,0.0,0.0,-0.00872664625997,0.0,0.0,0.0
262,2_4,2,4,0.0,0.0,0.9701054220190001,0.242683889388,0.0,0.0,-0.045553093477099994,0.0,0.0,0.0
263,2_5,2,5,0.0,0.0,0.970063050915,0.242853201028,0.0,0.0,0.0333357887131,0.0,0.0,0.0
264,2_6,2,6,0.0,0.0,0.9701054220190001,0.242683889388,0.0,0.0,-0.0244346095279,0.0,0.0,0.0
265,2_7,2,7,0.0,0.0,0.9700206502609999,0.24302250527,0.0,0.0,-0.030717794835099996,0.0,0.0,0.0
266,2_8,2,8,0.0,0.0,0.969893271012,0.243530373559,0.0,0.0,-0.00523598775598,0.0,0.0,0.0
267,2_9,2,9,0.0,0.0,0.969893271012,0.243530373559,0.0,0.0,0.0012217304764,0.0,0.0,0.0
268,2_10,2,10,0.0,0.0,0.9699569938760001,0.243276447751,0.0,0.0,-0.011868238913600001,0.0,0.0,0.0
269,2_11,2,11,0.0,0.0,0.9699569938760001,0.243276447751,0.0,0.0,-0.00314159265359,0.0,0.0,0.0
270,2_12,2,12,0.0,0.0,0.9697869185169999,0.243953546137,0.0,0.0,-0.0305432619099,0.0,0.0,0.0
271,2_13,2,13,0.0,0.0,0.9697869185169999,0.243953546137,0.0,0.0,0.00244346095279,0.0,0.0,0.0
272,2_14,2,14,0.0,0.0,0.9697869185169999,0.243953546137,0.0,0.0,0.004014257279590001,0.0,0.0,0.0
273,2_15,2,15,0.0,0.0,0.969744325821,0.244122802168,0.0,0.0,0.000698131700798,0.0,0.0,0.0
274,2_16,2,16,0.0,0.0,0.969765625862,0.24403817508200001,0.0,0.0,0.007679448708779999,0.0,0.0,0.0
275,2_17,2,17,0.0,0.0,0.969744325821,0.244122802168,0.0,0.0,0.00244346095279,0.0,0.0,0.0
276,2_18,2,18,0.0,0.0,0.9697869185169999,0.243953546137,0.0,0.0,-0.000174532925199,0.0,0.0,0.0
277,2_19,2,19,0.0,0.0,0.969765625862,0.24403817508200001,0.0,0.0,0.000698131700798,0.0,0.0,0.0
278,2_20,2,20,0.0,0.0,0.969829481672,0.243784282675,0.0,0.0,-0.004363323129989999,0.0,0.0,0.0
279,2_21,2,21,0.0,0.0,0.969765625862,0.24403817508200001,0.0,0.0,0.0013962634016,0.0,0.0,0.0
280,2_22,2,22,0.0,0.0,0.9697869185169999,0.243953546137,0.0,0.0,-0.00610865238198,0.0,0.0,0.0
281,2_23,2,23,0.0,0.0,0.969701703584,0.24429205076299998,0.0,0.0,-0.017453292519900004,0.0,0.0,0.0
282,2_24,2,24,0.0,0.0,0.969616370496,0.244630525623,0.0,0.0,0.0019198621771900001,0.0,0.0,0.0
283,2_25,2,25,0.0,0.0,0.969744325821,0.244122802168,0.0,0.0,0.00418879020479,0.0,0.0,0.0
284,2_26,2,26,0.0,0.0,0.9696590518089999,0.244461291916,0.0,0.0,-0.012217304764,0.0,0.0,0.0
285,2_27,2,27,0.0,0.0,0.9695095379950001,0.245053577276,0.0,0.0,-0.004363323129989999,0.0,0.0,0.0
286,2_28,2,28,0.0,0.0,0.969445349895,0.24530738587900003,0.0,0.0,-0.0033161255787899995,0.0,0.0,0.0
287,2_29,2,29,0.0,0.0,0.9694025209139999,0.24547658227400002,0.0,0.0,-0.0127409035396,0.0,0.0,0.0
288,2_30,2,30,0.0,0.0,0.969166433711,0.246407028649,0.0,0.0,-0.0371755130675,0.0,0.0,0.0
289,2_31,2,31,0.0,0.0,0.969209425089,0.246237873445,0.0,0.0,0.0287979326579,0.0,0.0,0.0
290,2_32,2,32,0.0,0.0,0.969273856799,0.245984126575,0.0,0.0,0.0232128790515,0.0,0.0,0.0
291,2_33,2,33,0.0,0.0,0.969209425089,0.246237873445,0.0,0.0,-0.0403171057211,0.0,0.0,0.0
292,2_34,2,34,0.0,0.0,0.9691018912899999,0.246660747381,0.0,0.0,-0.0373500459927,0.0,0.0,0.0
293,2_35,2,35,0.0,0.0,0.9690803623890001,0.246745316536,0.0,0.0,0.00855211333477,0.0,0.0,0.0
294,2_36,2,36,0.0,0.0,0.9691018912899999,0.246660747381,0.0,0.0,0.011868238913600001,0.0,0.0,0.0
295,2_37,2,37,0.0,0.0,0.969166433711,0.246407028649,0.0,0.0,-0.0169296937443,0.0,0.0,0.0
296,2_38,2,38,0.0,0.0,0.969123412811,0.24657617634799997,0.0,0.0,-0.026529004630299998,0.0,0.0,0.0
297,2_39,2,39,0.0,0.0,0.9689726071879999,0.24716813411,0.0,0.0,-0.00174532925199,0.0,0.0,0.0
298,2_40,2,40,0.0,0.0,0.969037282447,0.24691444920699998,0.0,0.0,0.00645771823238,0.0,0.0,0.0
299,2_41,2,41,0.0,0.0,0.969037282447,0.24691444920699998,0.0,0.0,-0.0010471975512,0.0,0.0,0.0
300,2_42,2,42,0.0,0.0,0.9689726071879999,0.24716813411,0.0,0.0,-0.0179768912955,0.0,0.0,0.0
301,2_43,2,43,0.0,0.0,0.968886270202,0.24750635429200002,0.0,0.0,-0.0518362787842,0.0,0.0,0.0
302,2_44,2,44,0.0,0.0,0.9669347558050001,0.255023877347,0.0,0.0,-0.27070056698399997,0.0,0.0,0.0
303,2_45,2,45,0.0,0.0,0.965313317604,0.26109423367,0.0,0.0,-0.216769893098,0.0,0.0,0.0
304,2_46,2,46,0.0,0.0,0.963279813515,0.268499536079,0.0,0.0,-0.241553568476,0.0,0.0,0.0
305,2_47,2,47,0.0,0.0,0.961117240795,0.276140633457,0.0,0.0,-0.263544717051,0.0,0.0,0.0
306,2_48,2,48,0.0,0.0,0.958097899798,0.286440944004,0.0,0.0,-0.546288055874,0.0,0.0,0.0
307,2_49,2,49,0.0,0.0,0.952847026724,0.303451056453,0.0,0.0,-0.611737902824,0.0,0.0,0.0
308,2_50,2,50,0.0,0.0,0.947294181569,0.32036500053000005,0.0,0.0,-0.518711853693,0.0,0.0,0.0
309,2_51,2,51,0.0,0.0,0.942641491092,0.333806859234,0.0,0.0,-0.53808500839,0.0,0.0,0.0
310,2_52,2,52,0.0,0.0,0.9367332976999999,0.350043895789,0.0,0.0,-0.549604181453,0.0,0.0,0.0
311,2_53,2,53,0.0,0.0,0.931469156217,0.363820300447,0.0,0.0,-0.515570261039,0.0,0.0,0.0
312,2_54,2,54,0.0,0.0,0.9218293309639999,0.387596032713,0.0,0.0,-0.502654824574,0.0,0.0,0.0
313,2_55,2,55,0.0,0.0,0.915802843794,0.401628125633,0.0,0.0,-0.605454717517,0.0,0.0,0.0
314,2_56,2,56,0.0,0.0,0.9083987490500001,0.41810490636299996,0.0,0.0,-0.529009296279,0.0,0.0,0.0
315,2_57,2,57,0.0,0.0,0.9063077870370001,0.422618261741,0.0,0.0,-0.530580092606,0.0,0.0,0.0
316,2_58,2,58,0.0,0.0,0.898985236231,0.437978932187,0.0,0.0,-0.557283630162,0.0,0.0,0.0
317,2_59,2,59,0.0,0.0,0.8967182990170001,0.44260173091300004,0.0,0.0,-0.552222175331,0.0,0.0,0.0
318,2_60,2,60,0.0,0.0,0.890490915048,0.45500102221600003,0.0,0.0,-0.492357381988,0.0,0.0,0.0
319,2_61,2,61,0.0,0.0,0.88257859847,0.470164883336,0.0,0.0,-0.566359342272,0.0,0.0,0.0
320,2_62,2,62,0.0,0.0,0.8800632982909999,0.474856389871,0.0,0.0,-0.56897733615,0.0,0.0,0.0
321,2_63,2,63,0.0,0.0,0.8729220772700002,0.48785965913900003,0.0,0.0,-0.519235452468,0.0,0.0,0.0
322,2_64,2,64,0.0,0.0,0.8647572681640001,0.502190070748,0.0,0.0,-0.555014702134,0.0,0.0,0.0
323,2_65,2,65,0.0,0.0,0.862027514351,0.506861484533,0.0,0.0,-0.5810201079890001,0.0,0.0,0.0
324,2_66,2,66,0.0,0.0,0.852913627072,0.522052051767,0.0,0.0,-0.5614724203670001,0.0,0.0,0.0
325,2_67,2,67,0.0,0.0,0.850260370389,0.526362330098,0.0,0.0,-0.540877535193,0.0,0.0,0.0
326,2_68,2,68,0.0,0.0,0.842358350935,0.538917812481,0.0,0.0,-0.5614724203670001,0.0,0.0,0.0
327,2_69,2,69,0.0,0.0,0.83253469758,0.55397290306,0.0,0.0,-0.573689725131,0.0,0.0,0.0
328,2_70,2,70,0.0,0.0,0.8241756137530001,0.5663343161909999,0.0,0.0,-0.51155600376,0.0,0.0,0.0
329,2_71,2,71,0.0,0.0,0.8145207270710001,0.580134454392,0.0,0.0,-0.522900643898,0.0,0.0,0.0
330,2_72,2,72,0.0,0.0,0.8055147827150001,0.592575678566,0.0,0.0,-0.550302313154,0.0,0.0,0.0
331,2_73,2,73,0.0,0.0,0.7946795626090001,0.607029153148,0.0,0.0,-0.5335471523349999,0.0,0.0,0.0
332,2_74,2,74,0.0,0.0,0.785856893175,0.6184083953580001,0.0,0.0,-0.540004870567,0.0,0.0,0.0
333,2_75,2,75,0.0,0.0,0.774503060199,0.632570161913,0.0,0.0,-0.573864258056,0.0,0.0,0.0
334,2_76,2,76,0.0,0.0,0.7653708976000001,0.643589456957,0.0,0.0,-0.479965544298,0.0,0.0,0.0
335,2_77,2,77,0.0,0.0,0.753964819364,0.6569147974899999,0.0,0.0,-0.5682792044489999,0.0,0.0,0.0
336,2_78,2,78,0.0,0.0,0.743378350842,0.668871159118,0.0,0.0,-0.55117497778,0.0,0.0,0.0
337,2_79,2,79,0.0,0.0,0.738337641411,0.674431262084,0.0,0.0,-0.540004870567,0.0,0.0,0.0
338,2_80,2,80,0.0,0.0,0.72795227954,0.685627798965,0.0,0.0,-0.540179403492,0.0,0.0,0.0
339,2_81,2,81,0.0,0.0,0.715204973482,0.698914762976,0.0,0.0,-0.553618438733,0.0,0.0,0.0
340,2_82,2,82,0.0,0.0,0.7115969922769999,0.702587873922,0.0,0.0,-0.553792971658,0.0,0.0,0.0
341,2_83,2,83,0.0,0.0,0.7004734336470001,0.713678477155,0.0,0.0,-0.558330827713,0.0,0.0,0.0
342,2_84,2,84,0.0,0.0,0.6872143115420001,0.726454740512,0.0,0.0,-0.5569345643110001,0.0,0.0,0.0
343,2_85,2,85,0.0,0.0,0.683401200631,0.7300430117300001,0.0,0.0,-0.567755605674,0.0,0.0,0.0
344,2_86,2,86,0.0,0.0,0.6710738596670001,0.741390500932,0.0,0.0,-0.587652359146,0.0,0.0,0.0
345,2_87,2,87,0.0,0.0,0.665360657468,0.7465220663140001,0.0,0.0,-0.548731516827,0.0,0.0,0.0
346,2_88,2,88,0.0,0.0,0.654014944924,0.7564816268860001,0.0,0.0,-0.5030038904249999,0.0,0.0,0.0
347,2_89,2,89,0.0,0.0,0.650641689512,0.759384877298,0.0,0.0,-0.48904125640900004,0.0,0.0,0.0
348,2_90,2,90,0.0,0.0,0.6371549910600001,0.770735698776,0.0,0.0,-0.548906049752,0.0,0.0,0.0
349,2_91,2,91,0.0,0.0,0.633178260031,0.77400600193,0.0,0.0,-0.557109097237,0.0,0.0,0.0
350,2_92,2,92,0.0,0.0,0.6233338405009999,0.7819558320559999,0.0,0.0,-0.17715091907699998,0.0,0.0,0.0
351,2_93,2,93,0.0,0.0,0.619299523583,0.785154825553,0.0,0.0,-0.21101030656599998,0.0,0.0,0.0
352,2_94,2,94,0.0,0.0,0.613044952383,0.790048027881,0.0,0.0,-0.32358404331999996,0.0,0.0,0.0
353,2_95,2,95,0.0,0.0,0.6064048261199999,0.7951560770430001,0.0,0.0,-0.294087978961,0.0,0.0,0.0
354,2_96,2,96,0.0,0.0,0.599582468446,0.800312978486,0.0,0.0,-0.244346095279,0.0,0.0,0.0
355,2_97,2,97,0.0,0.0,0.59454215154,0.804064443961,0.0,0.0,-0.148178453494,0.0,0.0,0.0
356,2_98,2,98,0.0,0.0,0.59454215154,0.804064443961,0.0,0.0,-0.028274333882299996,0.0,0.0,0.0
357,2_99,2,99,0.0,0.0,0.594261443885,0.804271929332,0.0,0.0,-0.008028514559169999,0.0,0.0,0.0
358,2_100,2,100,0.0,0.0,0.593208145567,0.805049126472,0.0,0.0,-0.0256563400043,0.0,0.0,0.0
359,2_101,2,101,0.0,0.0,0.592997363872,0.8052044004109999,0.0,0.0,-0.005410520681180001,0.0,0.0,0.0
360,2_102,2,102,0.0,0.0,0.592505381884,0.805566491631,0.0,0.0,-0.0190240888467,0.0,0.0,0.0
361,2_103,2,103,0.0,0.0,0.5918021669829999,0.806083243316,0.0,0.0,-0.0204203522483,0.0,0.0,0.0
362,2_104,2,104,0.0,0.0,0.59138002168,0.8063929996960001,0.0,0.0,-0.0188495559215,0.0,0.0,0.0
363,2_105,2,105,0.0,0.0,0.59060566762,0.8069603121439999,0.0,0.0,-0.0392699081699,0.0,0.0,0.0
364,2_106,2,106,0.0,0.0,0.590183063249,0.807269441918,0.0,0.0,-0.00855211333477,0.0,0.0,0.0
365,2_107,2,107,0.0,0.0,0.5901126134529999,0.807320942032,0.0,0.0,-0.00593411945678,0.0,0.0,0.0
366,2_108,2,108,0.0,0.0,0.589830769336,0.807526881004,0.0,0.0,-0.036128315516300004,0.0,0.0,0.0
367,2_109,2,109,0.0,0.0,0.588914279787,0.8081955029960001,0.0,0.0,-0.00157079632679,0.0,0.0,0.0
368,2_110,2,110,0.0,0.0,0.588843749182,0.8082468923839999,0.0,0.0,-0.0125663706144,0.0,0.0,0.0
369,2_111,2,111,0.0,0.0,0.587855850106,0.8089656973549999,0.0,0.0,-0.0689405054538,0.0,0.0,0.0
370,2_112,2,112,0.0,0.0,0.587290942296,0.809375900986,0.0,0.0,-0.0685914396034,0.0,0.0,0.0
371,2_113,2,113,0.0,0.0,0.58665507888,0.809836908534,0.0,0.0,-0.0132645023152,0.0,0.0,0.0
372,2_114,2,114,0.0,0.0,0.586937729543,0.8096320779459999,0.0,0.0,0.0207694180987,0.0,0.0,0.0
373,2_115,2,115,0.0,0.0,0.58686707358,0.8096832948430001,0.0,0.0,-0.0212930168743,0.0,0.0,0.0
374,2_116,2,116,0.0,0.0,0.5856652388660001,0.810553038353,0.0,0.0,-0.035604716740699996,0.0,0.0,0.0
375,2_117,2,117,0.0,0.0,0.584957674987,0.811063818989,0.0,0.0,-0.00314159265359,0.0,0.0,0.0
376,2_118,2,118,0.0,0.0,0.584957674987,0.811063818989,0.0,0.0,-0.013962634016,0.0,0.0,0.0
377,2_119,2,119,0.0,0.0,0.5846745246739999,0.8112679583210001,0.0,0.0,-0.00733038285838,0.0,0.0,0.0
378,2_120,2,120,0.0,0.0,0.584532922799,0.8113699909190001,0.0,0.0,-0.020071286397900002,0.0,0.0,0.0
379,2_121,2,121,0.0,0.0,0.584249665637,0.8115739819650001,0.0,0.0,-0.023387411976700002,0.0,0.0,0.0
380,2_122,2,122,0.0,0.0,0.582052011514,0.813151557763,0.0,0.0,-0.10821041362400001,0.0,0.0,0.0
381,2_123,2,123,0.0,0.0,0.579636783784,0.814874959048,0.0,0.0,-0.0637045176978,0.0,0.0,0.0
382,2_124,2,124,0.0,0.0,0.5806319085180001,0.8141661911489999,0.0,0.0,0.024783675378299997,0.0,0.0,0.0
383,2_125,2,125,0.0,0.0,0.5800633718399999,0.8145713502509999,0.0,0.0,-0.0523598775598,0.0,0.0,0.0
384,2_126,2,126,0.0,0.0,0.578427255041,0.815733970499,0.0,0.0,-0.0401425727959,0.0,0.0,0.0
385,2_127,2,127,0.0,0.0,0.578569618666,0.8156330034739999,0.0,0.0,0.0310668606855,0.0,0.0,0.0
386,2_128,2,128,0.0,0.0,0.578711964667,0.815532011604,0.0,0.0,-0.0328121899375,0.0,0.0,0.0
387,3_0,3,0,0.0,0.0,0.578284873795,0.815834912675,0.0,0.0,-0.054454272662199994,0.0,0.0,0.0
388,3_1,3,1,0.0,0.0,0.577501462184,0.816389650335,0.0,0.0,-0.0176278254451,0.0,0.0,0.0
389,3_2,3,2,0.0,0.0,0.577358966516,0.81649043092,0.0,0.0,-0.0151843644924,0.0,0.0,0.0
390,3_3,3,3,0.0,0.0,0.577145190037,0.8166415551620001,0.0,0.0,-0.028274333882299996,0.0,0.0,0.0
391,3_4,3,4,0.0,0.0,0.57643231617,0.8171448983349999,0.0,0.0,-0.021816615649900003,0.0,0.0,0.0
392,3_5,3,5,0.0,0.0,0.57636100463,0.817195198433,0.0,0.0,-0.0132645023152,0.0,0.0,0.0
393,3_6,3,6,0.0,0.0,0.576004381105,0.8174466055640001,0.0,0.0,-0.0185004900711,0.0,0.0,0.0
394,3_7,3,7,0.0,0.0,0.575861700985,0.817547124842,0.0,0.0,-0.0249582083035,0.0,0.0,0.0
395,3_8,3,8,0.0,0.0,0.575362182454,0.8178987461789999,0.0,0.0,-0.013962634016,0.0,0.0,0.0
396,3_9,3,9,0.0,0.0,0.575219423431,0.817999153366,0.0,0.0,-0.0237364778271,0.0,0.0,0.0
397,3_10,3,10,0.0,0.0,0.574576791052,0.818450677307,0.0,0.0,-0.0261799387799,0.0,0.0,0.0
398,3_11,3,11,0.0,0.0,0.574005264714,0.8188516080949999,0.0,0.0,-0.0239110107523,0.0,0.0,0.0
399,3_12,3,12,0.0,0.0,0.5739338042450001,0.8189016963860001,0.0,0.0,-0.014137166941200001,0.0,0.0,0.0
400,3_13,3,13,0.0,0.0,0.573504949666,0.819202095156,0.0,0.0,-0.0280998009571,0.0,0.0,0.0
401,3_14,3,14,0.0,0.0,0.573361963194,0.819302178175,0.0,0.0,-0.007853981633970001,0.0,0.0,0.0
402,3_15,3,15,0.0,0.0,0.572861373028,0.819652272182,0.0,0.0,-0.0314159265359,0.0,0.0,0.0
403,3_16,3,16,0.0,0.0,0.572145873446,0.8201518758740001,0.0,0.0,-0.0310668606855,0.0,0.0,0.0
404,3_17,3,17,0.0,0.0,0.571931138582,0.820301635205,0.0,0.0,-0.00872664625997,0.0,0.0,0.0
405,3_18,3,18,0.0,0.0,0.571429938149,0.820650854984,0.0,0.0,-0.0342084533391,0.0,0.0,0.0
406,3_19,3,19,0.0,0.0,0.5707852242979999,0.8210994018529999,0.0,0.0,-0.0280998009571,0.0,0.0,0.0
407,3_20,3,20,0.0,0.0,0.570211849726,0.821497684983,0.0,0.0,-0.014137166941200001,0.0,0.0,0.0
408,3_21,3,21,0.0,0.0,0.569925058204,0.821696676415,0.0,0.0,0.00261799387799,0.0,0.0,0.0
409,3_22,3,22,0.0,0.0,0.569853349472,0.82174640863,0.0,0.0,-0.011344640138,0.0,0.0,0.0
410,3_23,3,23,0.0,0.0,0.5690642671180001,0.822293049885,0.0,0.0,-0.0486946861306,0.0,0.0,0.0
411,3_24,3,24,0.0,0.0,0.568059222188,0.822987679183,0.0,0.0,-0.0364773813667,0.0,0.0,0.0
412,3_25,3,25,0.0,0.0,0.5677719106920001,0.823185919115,0.0,0.0,-0.0301941960595,0.0,0.0,0.0
413,3_26,3,26,0.0,0.0,0.5677719106920001,0.823185919115,0.0,0.0,-0.00279252680319,0.0,0.0,0.0
414,3_27,3,27,0.0,0.0,0.566909561255,0.823780036999,0.0,0.0,-0.0394444410951,0.0,0.0,0.0
415,3_28,3,28,0.0,0.0,0.566621973244,0.823977875575,0.0,0.0,-0.03403392041390001,0.0,0.0,0.0
416,3_29,3,29,0.0,0.0,0.566262391144,0.824225032607,0.0,0.0,0.00855211333477,0.0,0.0,0.0
417,3_30,3,30,0.0,0.0,0.566406236925,0.824126188622,0.0,0.0,0.0178023583703,0.0,0.0,0.0
418,3_31,3,31,0.0,0.0,0.566118528114,0.8243238514839999,0.0,0.0,-0.044680428851100004,0.0,0.0,0.0
419,3_32,3,32,0.0,0.0,0.565758795103,0.824570788813,0.0,0.0,-0.0438077642251,0.0,0.0,0.0
420,3_33,3,33,0.0,0.0,0.565470931137,0.8247682256479999,0.0,0.0,-0.011868238913600001,0.0,0.0,0.0
421,3_34,3,34,0.0,0.0,0.565398954378,0.824817569156,0.0,0.0,-0.00855211333477,0.0,0.0,0.0
422,3_35,3,35,0.0,0.0,0.5649670034250001,0.8251134982780001,0.0,0.0,-0.0328121899375,0.0,0.0,0.0
423,3_36,3,36,0.0,0.0,0.56424674103,0.825606210755,0.0,0.0,-0.0230383461263,0.0,0.0,0.0
424,3_37,3,37,0.0,0.0,0.564030578496,0.8257539019110001,0.0,0.0,-0.026354471705099997,0.0,0.0,0.0
425,3_38,3,38,0.0,0.0,0.563526048938,0.8260982944959999,0.0,0.0,-0.000174532925199,0.0,0.0,0.0
426,3_39,3,39,0.0,0.0,0.563526048938,0.8260982944959999,0.0,0.0,0.00226892802759,0.0,0.0,0.0
427,3_40,3,40,0.0,0.0,0.563093427655,0.826393242792,0.0,0.0,-0.023387411976700002,0.0,0.0,0.0
428,3_41,3,41,0.0,0.0,0.5624442063139999,0.8268352404100001,0.0,0.0,-0.0230383461263,0.0,0.0,0.0
429,3_42,3,42,0.0,0.0,0.562011199316,0.8271296221529999,0.0,0.0,-0.0127409035396,0.0,0.0,0.0
430,3_43,3,43,0.0,0.0,0.561722442377,0.8273257506749999,0.0,0.0,-0.0013962634016,0.0,0.0,0.0
431,3_44,3,44,0.0,0.0,0.561650242447,0.827374767055,0.0,0.0,-0.0193731546971,0.0,0.0,0.0
432,3_45,3,45,0.0,0.0,0.560783509816,0.8279624720469999,0.0,0.0,-0.0239110107523,0.0,0.0,0.0
433,3_46,3,46,0.0,0.0,0.560277631725,0.828304880698,0.0,0.0,-0.0102974425868,0.0,0.0,0.0
434,3_47,3,47,0.0,0.0,0.560060762816,0.828451532652,0.0,0.0,-0.0160570291183,0.0,0.0,0.0
435,3_48,3,48,0.0,0.0,0.559482258102,0.828842326905,0.0,0.0,-0.0230383461263,0.0,0.0,0.0
436,3_49,3,49,0.0,0.0,0.559337589306,0.8289399623549999,0.0,0.0,-0.0134390352404,0.0,0.0,0.0
437,3_50,3,50,0.0,0.0,0.5591205541650001,0.8290863681849999,0.0,0.0,-0.0013962634016,0.0,0.0,0.0
438,3_51,3,51,0.0,0.0,0.559048200602,0.829135157501,0.0,0.0,0.00261799387799,0.0,0.0,0.0
439,3_52,3,52,0.0,0.0,0.559048200602,0.829135157501,0.0,0.0,-0.004363323129989999,0.0,0.0,0.0
440,3_53,3,53,0.0,0.0,0.558686368935,0.8293790093600001,0.0,0.0,-0.0179768912955,0.0,0.0,0.0
441,3_54,3,54,0.0,0.0,0.558324430902,0.8296227033169999,0.0,0.0,-0.007853981633970001,0.0,0.0,0.0
442,3_55,3,55,0.0,0.0,0.558252030537,0.829671423156,0.0,0.0,-0.012391837689200002,0.0,0.0,0.0
443,3_56,3,56,0.0,0.0,0.557600236013,0.8301096173379999,0.0,0.0,-0.0319395253115,0.0,0.0,0.0
444,3_57,3,57,0.0,0.0,0.557455346062,0.830206924295,0.0,0.0,-0.0144862327916,0.0,0.0,0.0
445,3_58,3,58,0.0,0.0,0.557382894718,0.8302555682899999,0.0,0.0,0.0050614548307799994,0.0,0.0,0.0
446,3_59,3,59,0.0,0.0,0.557382894718,0.8302555682899999,0.0,0.0,-0.00226892802759,0.0,0.0,0.0
447,3_60,3,60,0.0,0.0,0.556803131202,0.830644492598,0.0,0.0,-0.0333357887131,0.0,0.0,0.0
448,3_61,3,61,0.0,0.0,0.556585649903,0.83079023485,0.0,0.0,-0.0286233997327,0.0,0.0,0.0
449,3_62,3,62,0.0,0.0,0.5562956155,0.8309844692739999,0.0,0.0,-0.00174532925199,0.0,0.0,0.0
450,3_63,3,63,0.0,0.0,0.556223096307,0.831033012061,0.0,0.0,-0.00296705972839,0.0,0.0,0.0
451,3_64,3,64,0.0,0.0,0.555642790316,0.831421126488,0.0,0.0,-0.0324631240871,0.0,0.0,0.0
452,3_65,3,65,0.0,0.0,0.554989622383,0.8318572708390001,0.0,0.0,-0.011344640138,0.0,0.0,0.0
453,3_66,3,66,0.0,0.0,0.554989622383,0.8318572708390001,0.0,0.0,0.0129154364648,0.0,0.0,0.0
454,3_67,3,67,0.0,0.0,0.554699215611,0.83205094808,0.0,0.0,-0.0321140582367,0.0,0.0,0.0
455,3_68,3,68,0.0,0.0,0.553827589908,0.8326313714110001,0.0,0.0,-0.027925268031900003,0.0,0.0,0.0
456,3_69,3,69,0.0,0.0,0.55397290306,0.83253469758,0.0,0.0,0.0212930168743,0.0,0.0,0.0
457,3_70,3,70,0.0,0.0,0.553827589908,0.8326313714110001,0.0,0.0,-0.030892327760299997,0.0,0.0,0.0
458,3_71,3,71,0.0,0.0,0.553100771174,0.833114360053,0.0,0.0,-0.0158824961931,0.0,0.0,0.0
459,3_72,3,72,0.0,0.0,0.553028066124,0.833162624029,0.0,0.0,0.0160570291183,0.0,0.0,0.0
460,3_73,3,73,0.0,0.0,0.553173472011,0.833066089733,0.0,0.0,0.0125663706144,0.0,0.0,0.0
461,3_74,3,74,0.0,0.0,0.5527372038180001,0.8333556164779999,0.0,0.0,-0.036128315516300004,0.0,0.0,0.0
462,3_75,3,75,0.0,0.0,0.5521552771930001,0.833741296727,0.0,0.0,-0.0132645023152,0.0,0.0,0.0
463,3_76,3,76,0.0,0.0,0.5521552771930001,0.833741296727,0.0,0.0,0.00157079632679,0.0,0.0,0.0
464,3_77,3,77,0.0,0.0,0.552446274162,0.833548507385,0.0,0.0,-0.004363323129989999,0.0,0.0,0.0
465,3_78,3,78,0.0,0.0,0.551354688728,0.834270943529,0.0,0.0,-0.062133721371,0.0,0.0,0.0
466,3_79,3,79,0.0,0.0,0.551063439648,0.8344633517919999,0.0,0.0,-0.03525565089030001,0.0,0.0,0.0
467,3_80,3,80,0.0,0.0,0.550699283877,0.834703719135,0.0,0.0,0.0193731546971,0.0,0.0,0.0
468,3_81,3,81,0.0,0.0,0.550917789925,0.8345595177959999,0.0,0.0,0.023561944901900004,0.0,0.0,0.0
469,3_82,3,82,0.0,0.0,0.55062644014,0.834751773535,0.0,0.0,-0.0389208423195,0.0,0.0,0.0
470,3_83,3,83,0.0,0.0,0.5498977722249999,0.83523196784,0.0,0.0,-0.014660765716799999,0.0,0.0,0.0
471,3_84,3,84,0.0,0.0,0.549751988372,0.835327930385,0.0,0.0,-0.0242600766027,0.0,0.0,0.0
472,3_85,3,85,0.0,0.0,0.549533281194,0.835471826491,0.0,0.0,0.015533430342700001,0.0,0.0,0.0
473,3_86,3,86,0.0,0.0,0.5494603704300001,0.835519779135,0.0,0.0,-0.029670597283900004,0.0,0.0,0.0
474,3_87,3,87,0.0,0.0,0.549168685539,0.83571152608,0.0,0.0,-0.0364773813667,0.0,0.0,0.0
475,3_88,3,88,0.0,0.0,0.548001277184,0.836477495337,0.0,0.0,-0.0624827872214,0.0,0.0,0.0
476,3_89,3,89,0.0,0.0,0.547563223493,0.836764313459,0.0,0.0,-0.050090949532199995,0.0,0.0,0.0
477,3_90,3,90,0.0,0.0,0.547636242869,0.836716526367,0.0,0.0,0.008028514559169999,0.0,0.0,0.0
478,3_91,3,91,0.0,0.0,0.547344140345,0.836907636499,0.0,0.0,-0.030892327760299997,0.0,0.0,0.0
479,3_92,3,92,0.0,0.0,0.546613592335,0.837384965637,0.0,0.0,-0.012042771838799999,0.0,0.0,0.0
480,3_93,3,93,0.0,0.0,0.546613592335,0.837384965637,0.0,0.0,-0.000174532925199,0.0,0.0,0.0
481,3_94,3,94,0.0,0.0,0.546101961014,0.83771871662,0.0,0.0,-0.030892327760299997,0.0,0.0,0.0
482,3_95,3,95,0.0,0.0,0.5455901259120001,0.8380521550040001,0.0,0.0,-0.0134390352404,0.0,0.0,0.0
483,3_96,3,96,0.0,0.0,0.5454438499090001,0.83814736568,0.0,0.0,-0.0115191730632,0.0,0.0,0.0
484,3_97,3,97,0.0,0.0,0.543980176779,0.839098067732,0.0,0.0,-0.0640535835482,0.0,0.0,0.0
485,3_98,3,98,0.0,0.0,0.542368222605,0.8401408876540001,0.0,0.0,-0.0767944870878,0.0,0.0,0.0
486,3_99,3,99,0.0,0.0,0.541708210283,0.840566603496,0.0,0.0,-0.0415388361975,0.0,0.0,0.0
487,3_100,3,100,0.0,0.0,0.541194636325,0.840897357359,0.0,0.0,-0.017453292519900004,0.0,0.0,0.0
488,3_101,3,101,0.0,0.0,0.54082767413,0.8411334180110001,0.0,0.0,0.0010471975512,0.0,0.0,0.0
489,3_102,3,102,0.0,0.0,0.5407542693330001,0.841180610926,0.0,0.0,-0.0101229096616,0.0,0.0,0.0
490,3_103,3,103,0.0,0.0,0.540387183587,0.8414164794050001,0.0,0.0,-0.00471238898038,0.0,0.0,0.0
491,3_104,3,104,0.0,0.0,0.540387183587,0.8414164794050001,0.0,0.0,-0.0136135681656,0.0,0.0,0.0
492,3_105,3,105,0.0,0.0,0.539946544894,0.841699310121,0.0,0.0,-0.0659734457254,0.0,0.0,0.0
493,3_106,3,106,0.0,0.0,0.538108958339,0.842875286715,0.0,0.0,-0.00488692190558,0.0,0.0,0.0
494,3_107,3,107,0.0,0.0,0.53862374112,0.842546417417,0.0,0.0,-0.005759586531579999,0.0,0.0,0.0
495,3_108,3,108,0.0,0.0,0.538550213024,0.842593417997,0.0,0.0,-0.00645771823238,0.0,0.0,0.0
496,3_109,3,109,0.0,0.0,0.538182511035,0.842828324641,0.0,0.0,-0.042411500823499995,0.0,0.0,0.0
497,3_110,3,110,0.0,0.0,0.5378882756669999,0.843016134425,0.0,0.0,-0.035081117965099995,0.0,0.0,0.0
498,3_111,3,111,0.0,0.0,0.537520389296,0.843250752203,0.0,0.0,0.000174532925199,0.0,0.0,0.0
499,3_112,3,112,0.0,0.0,0.537814706583,0.843063070822,0.0,0.0,0.0019198621771900001,0.0,0.0,0.0
500,3_113,3,113,0.0,0.0,0.5373732060890001,0.843344554365,0.0,0.0,-0.0267035375555,0.0,0.0,0.0
501,3_114,3,114,0.0,0.0,0.536931558271,0.8436258067010001,0.0,0.0,0.00645771823238,0.0,0.0,0.0
502,3_115,3,115,0.0,0.0,0.537005176466,0.843578947371,0.0,0.0,0.004363323129989999,0.0,0.0,0.0
503,3_116,3,116,0.0,0.0,0.5375939747590001,0.8432038414899999,0.0,0.0,0.0329867228627,0.0,0.0,0.0
504,3_117,3,117,0.0,0.0,0.537520389296,0.843250752203,0.0,0.0,-0.011868238913600001,0.0,0.0,0.0
505,3_118,3,118,0.0,0.0,0.536342465553,0.844000450026,0.0,0.0,-0.044505895925900006,0.0,0.0,0.0
506,3_119,3,119,0.0,0.0,0.53590047445,0.844281162578,0.0,0.0,-0.00296705972839,0.0,0.0,0.0
507,3_120,3,120,0.0,0.0,0.536268810577,0.844047251522,0.0,0.0,-0.0132645023152,0.0,0.0,0.0
508,3_121,3,121,0.0,0.0,0.535384632481,0.8446083680040001,0.0,0.0,-0.0387463093943,0.0,0.0,0.0
509,3_122,3,122,0.0,0.0,0.535016051605,0.844841893211,0.0,0.0,0.0019198621771900001,0.0,0.0,0.0
510,3_123,3,123,0.0,0.0,0.53486859073,0.84493525826,0.0,0.0,-0.028972465583099998,0.0,0.0,0.0
511,3_124,3,124,0.0,0.0,0.53435234939,0.845261833222,0.0,0.0,-0.0226892802759,0.0,0.0,0.0
512,3_125,3,125,0.0,0.0,0.533835908652,0.8455880927689999,0.0,0.0,-0.00174532925199,0.0,0.0,0.0
513,3_126,3,126,0.0,0.0,0.533762115138,0.845634675521,0.0,0.0,-0.008901179185170001,0.0,0.0,0.0
514,3_127,3,127,0.0,0.0,0.5331716207370001,0.846007105668,0.0,0.0,-0.0197222205475,0.0,0.0,0.0
515,3_128,3,128,0.0,0.0,0.5329501183259999,0.846146660678,0.0,0.0,-0.011868238913600001,0.0,0.0,0.0
516,4_0,4,0,0.0,0.0,0.5328762760710001,0.846193166128,0.0,0.0,-0.00628318530718,0.0,0.0,0.0
517,4_1,4,1,0.0,0.0,0.532728579387,0.846286157694,0.0,0.0,-0.000698131700798,0.0,0.0,0.0
518,4_2,4,2,0.0,0.0,0.532654724959,0.84633264381,0.0,0.0,-0.00942477796077,0.0,0.0,0.0
519,4_3,4,3,0.0,0.0,0.532211513228,0.846611425146,0.0,0.0,-0.026529004630299998,0.0,0.0,0.0
520,4_4,4,4,0.0,0.0,0.531694248471,0.846936376679,0.0,0.0,-0.008901179185170001,0.0,0.0,0.0
521,4_5,4,5,0.0,0.0,0.531546422091,0.8470291619320001,0.0,0.0,-0.0144862327916,0.0,0.0,0.0
522,4_6,4,6,0.0,0.0,0.531546422091,0.8470291619320001,0.0,0.0,-0.00453785605519,0.0,0.0,0.0
523,4_7,4,7,0.0,0.0,0.531102845816,0.847307362866,0.0,0.0,-0.0198967534727,0.0,0.0,0.0
524,4_8,4,8,0.0,0.0,0.530659123936,0.847585331506,0.0,0.0,-0.012217304764,0.0,0.0,0.0
525,4_9,4,9,0.0,0.0,0.5304372084319999,0.847724228692,0.0,0.0,-0.014835298642,0.0,0.0,0.0
526,4_10,4,10,0.0,0.0,0.530141264543,0.8479093345569999,0.0,0.0,-0.0150098315672,0.0,0.0,0.0
527,4_11,4,11,0.0,0.0,0.529993268373,0.848001848748,0.0,0.0,-0.007679448708779999,0.0,0.0,0.0
528,4_12,4,12,0.0,0.0,0.529845256058,0.8480943371070001,0.0,0.0,-0.0013962634016,0.0,0.0,0.0
529,4_13,4,13,0.0,0.0,0.5304372084319999,0.847724228692,0.0,0.0,0.0443313630007,0.0,0.0,0.0
530,4_14,4,14,0.0,0.0,0.530141264543,0.8479093345569999,0.0,0.0,-0.0214675497995,0.0,0.0,0.0
531,4_15,4,15,0.0,0.0,0.529919264233,0.8480480961560001,0.0,0.0,-0.028448866807499997,0.0,0.0,0.0
532,4_16,4,16,0.0,0.0,0.5291790009740001,0.848510214982,0.0,0.0,-0.0237364778271,0.0,0.0,0.0
533,4_17,4,17,0.0,0.0,0.5291790009740001,0.848510214982,0.0,0.0,0.027052603405900003,0.0,0.0,0.0
534,4_18,4,18,0.0,0.0,0.529253045444,0.848464032171,0.0,0.0,-0.0239110107523,0.0,0.0,0.0
535,4_19,4,19,0.0,0.0,0.527919628867,0.849294333819,0.0,0.0,-0.0476474885794,0.0,0.0,0.0
536,4_20,4,20,0.0,0.0,0.527771391003,0.8493864602399999,0.0,0.0,0.0179768912955,0.0,0.0,0.0
537,4_21,4,21,0.0,0.0,0.527919628867,0.849294333819,0.0,0.0,0.00645771823238,0.0,0.0,0.0
538,4_22,4,22,0.0,0.0,0.527326580967,0.8496626842489999,0.0,0.0,-0.030717794835099996,0.0,0.0,0.0
539,4_23,4,23,0.0,0.0,0.526881626361,0.849938675319,0.0,0.0,-0.015358897417600001,0.0,0.0,0.0
540,4_24,4,24,0.0,0.0,0.526807453214,0.8499846511779999,0.0,0.0,-0.005410520681180001,0.0,0.0,0.0
541,4_25,4,25,0.0,0.0,0.526807453214,0.8499846511779999,0.0,0.0,0.006632251157579999,0.0,0.0,0.0
542,4_26,4,26,0.0,0.0,0.52651072051,0.8501684898819999,0.0,0.0,-0.020071286397900002,0.0,0.0,0.0
543,4_27,4,27,0.0,0.0,0.526362330098,0.850260370389,0.0,0.0,-0.0127409035396,0.0,0.0,0.0
544,4_28,4,28,0.0,0.0,0.525991283929,0.8504899583359999,0.0,0.0,-0.0181514242207,0.0,0.0,0.0
545,4_29,4,29,0.0,0.0,0.525842837419,0.850581748179,0.0,0.0,-0.010471975512,0.0,0.0,0.0
546,4_30,4,30,0.0,0.0,0.525768608156,0.8506276333849999,0.0,0.0,0.004014257279590001,0.0,0.0,0.0
547,4_31,4,31,0.0,0.0,0.525842837419,0.850581748179,0.0,0.0,0.00296705972839,0.0,0.0,0.0
548,4_32,4,32,0.0,0.0,0.525545896347,0.850765250132,0.0,0.0,-0.009250245035569999,0.0,0.0,0.0
549,4_33,4,33,0.0,0.0,0.525471651072,0.850811109424,0.0,0.0,-0.004363323129989999,0.0,0.0,0.0
550,4_34,4,34,0.0,0.0,0.5250260954070001,0.8510861290970001,0.0,0.0,-0.00680678408278,0.0,0.0,0.0
551,4_35,4,35,0.0,0.0,0.524877544859,0.851177750474,0.0,0.0,0.010646508437200001,0.0,0.0,0.0
552,4_36,4,36,0.0,0.0,0.525100364684,0.851040308686,0.0,0.0,0.0134390352404,0.0,0.0,0.0
553,4_37,4,37,0.0,0.0,0.52450609855,0.851406690474,0.0,0.0,-0.028972465583099998,0.0,0.0,0.0
554,4_38,4,38,0.0,0.0,0.524134552382,0.851635468378,0.0,0.0,0.006632251157579999,0.0,0.0,0.0
555,4_39,4,39,0.0,0.0,0.524060231171,0.851681204504,0.0,0.0,-0.022340214425499997,0.0,0.0,0.0
556,4_40,4,40,0.0,0.0,0.523465517862,0.8520468599850001,0.0,0.0,-0.0176278254451,0.0,0.0,0.0
557,4_41,4,41,0.0,0.0,0.5233167996589999,0.8521382089749999,0.0,0.0,-0.0005235987755980001,0.0,0.0,0.0
558,4_42,4,42,0.0,0.0,0.523093692466,0.852275183789,0.0,0.0,-0.011344640138,0.0,0.0,0.0
559,4_43,4,43,0.0,0.0,0.522721767481,0.852503345332,0.0,0.0,-0.0160570291183,0.0,0.0,0.0
560,4_44,4,44,0.0,0.0,0.522572969617,0.852594564506,0.0,0.0,0.0132645023152,0.0,0.0,0.0
561,4_45,4,45,0.0,0.0,0.522944934419,0.85236646788,0.0,0.0,-0.0013962634016,0.0,0.0,0.0
562,4_46,4,46,0.0,0.0,0.522200905326,0.8528224988099999,0.0,0.0,-0.026354471705099997,0.0,0.0,0.0
563,4_47,4,47,0.0,0.0,0.5222753261399999,0.852776924937,0.0,0.0,0.012042771838799999,0.0,0.0,0.0
564,4_48,4,48,0.0,0.0,0.522200905326,0.8528224988099999,0.0,0.0,-0.009250245035569999,0.0,0.0,0.0
565,4_49,4,49,0.0,0.0,0.522126480535,0.852868066189,0.0,0.0,-0.014660765716799999,0.0,0.0,0.0
566,4_50,4,50,0.0,0.0,0.521903182306,0.853004729353,0.0,0.0,-0.00610865238198,0.0,0.0,0.0
567,4_51,4,51,0.0,0.0,0.521754296948,0.853095805649,0.0,0.0,-0.0111701072128,0.0,0.0,0.0
568,4_52,4,52,0.0,0.0,0.521679848308,0.8531413340530001,0.0,0.0,-0.015358897417600001,0.0,0.0,0.0
569,4_53,4,53,0.0,0.0,0.5213820140259999,0.853323382693,0.0,0.0,-0.0115191730632,0.0,0.0,0.0
570,4_54,4,54,0.0,0.0,0.521233073059,0.853414368024,0.0,0.0,-0.012042771838799999,0.0,0.0,0.0
571,4_55,4,55,0.0,0.0,0.5211585966219999,0.85345985094,0.0,0.0,-0.0116937059884,0.0,0.0,0.0
572,4_56,4,56,0.0,0.0,0.521084116215,0.853505327358,0.0,0.0,-0.00157079632679,0.0,0.0,0.0
573,4_57,4,57,0.0,0.0,0.521084116215,0.853505327358,0.0,0.0,-0.0111701072128,0.0,0.0,0.0
574,4_58,4,58,0.0,0.0,0.52071165467,0.853732611941,0.0,0.0,-0.0553269372882,0.0,0.0,0.0
575,4_59,4,59,0.0,0.0,0.512942084648,0.8584232160169999,0.0,0.0,-0.318871654339,0.0,0.0,0.0
576,4_60,4,60,0.0,0.0,0.5077639195520001,0.861496257683,0.0,0.0,-0.19006635554200002,0.0,0.0,0.0
577,4_61,4,61,0.0,0.0,0.506109030711,0.862469506147,0.0,0.0,-0.22584560520799998,0.0,0.0,0.0
578,4_62,4,62,0.0,0.0,0.498941577478,0.866635622545,0.0,0.0,-0.262322986575,0.0,0.0,0.0
579,4_63,4,63,0.0,0.0,0.496822499816,0.867852178471,0.0,0.0,-0.26686084263,0.0,0.0,0.0
580,4_64,4,64,0.0,0.0,0.490447519859,0.871470728289,0.0,0.0,-0.24102996969999999,0.0,0.0,0.0
581,4_65,4,65,0.0,0.0,0.48358794857500004,0.875295776291,0.0,0.0,-0.227067335684,0.0,0.0,0.0
582,4_66,4,66,0.0,0.0,0.478155439381,0.8782752278129999,0.0,0.0,-0.218166156499,0.0,0.0,0.0
583,4_67,4,67,0.0,0.0,0.468932113235,0.8832342119600001,0.0,0.0,-0.531452757232,0.0,0.0,0.0
584,4_68,4,68,0.0,0.0,0.453057191132,0.891481453292,0.0,0.0,-0.596029939556,0.0,0.0,0.0
585,4_69,4,69,0.0,0.0,0.436958784165,0.899481528961,0.0,0.0,-0.52935836213,0.0,0.0,0.0
586,4_70,4,70,0.0,0.0,0.42388329376500006,0.90571681737,0.0,0.0,-0.5387831400909999,0.0,0.0,0.0
587,4_71,4,71,0.0,0.0,0.409843434785,0.9121558852320001,0.0,0.0,-0.48973938811000006,0.0,0.0,0.0
588,4_72,4,72,0.0,0.0,0.396346847517,0.9181008531,0.0,0.0,-0.554491103359,0.0,0.0,0.0
589,4_73,4,73,0.0,0.0,0.379052424524,0.9253751992910001,0.0,0.0,-0.5667084081229999,0.0,0.0,0.0
590,4_74,4,74,0.0,0.0,0.36455176232500003,0.9311831251620001,0.0,0.0,-0.543670061996,0.0,0.0,0.0
591,4_75,4,75,0.0,0.0,0.357471611696,0.933924004848,0.0,0.0,-0.55553830091,0.0,0.0,0.0
592,4_76,4,76,0.0,0.0,0.343249904718,0.939244112524,0.0,0.0,-0.515221195189,0.0,0.0,0.0
593,4_77,4,77,0.0,0.0,0.326805556099,0.945091597943,0.0,0.0,-0.550825911929,0.0,0.0,0.0
594,4_78,4,78,0.0,0.0,0.32176998668400003,0.946817868267,0.0,0.0,-0.575958653158,0.0,0.0,0.0
595,4_79,4,79,0.0,0.0,0.307107480437,0.951674837042,0.0,0.0,-0.541750199819,0.0,0.0,0.0
596,4_80,4,80,0.0,0.0,0.29028467725400003,0.956940335732,0.0,0.0,-0.527962098728,0.0,0.0,0.0
597,4_81,4,81,0.0,0.0,0.285437469354,0.9583973346629999,0.0,0.0,-0.554316570433,0.0,0.0,0.0
598,4_82,4,82,0.0,0.0,0.268667656032,0.963232936834,0.0,0.0,-0.516093859815,0.0,0.0,0.0
599,4_83,4,83,0.0,0.0,0.254179970591,0.967156937911,0.0,0.0,-0.5333726194089999,0.0,0.0,0.0
600,4_84,4,84,0.0,0.0,0.23632941169399999,0.9716729949770001,0.0,0.0,-0.550127780229,0.0,0.0,0.0
601,4_85,4,85,0.0,0.0,0.23174790349399998,0.9727758782089999,0.0,0.0,-0.5021312257989999,0.0,0.0,0.0
602,4_86,4,86,0.0,0.0,0.21737669096200002,0.9760877902249999,0.0,0.0,-0.535990613287,0.0,0.0,0.0
603,4_87,4,87,0.0,0.0,0.19962447127,0.979872476637,0.0,0.0,-0.566184809347,0.0,0.0,0.0
604,4_88,4,88,0.0,0.0,0.19474795149000002,0.980853320018,0.0,0.0,-0.531278224307,0.0,0.0,0.0
605,4_89,4,89,0.0,0.0,0.17957490139199997,0.9837443035619999,0.0,0.0,-0.555189235059,0.0,0.0,0.0
606,4_90,4,90,0.0,0.0,0.161431579828,0.9868839065639999,0.0,0.0,-0.579100245812,0.0,0.0,0.0
607,4_91,4,91,0.0,0.0,0.156520656512,0.987674685352,0.0,0.0,-0.5316272901569999,0.0,0.0,0.0
608,4_92,4,92,0.0,0.0,0.139259517621,0.990255919827,0.0,0.0,-0.546462588799,0.0,0.0,0.0
609,4_93,4,93,0.0,0.0,0.12308187603399999,0.992396519438,0.0,0.0,-0.601964059013,0.0,0.0,0.0
610,4_94,4,94,0.0,0.0,0.105396307434,0.994430298402,0.0,0.0,-0.5361651462129999,0.0,0.0,0.0
611,4_95,4,95,0.0,0.0,0.0908932990147,0.995860636934,0.0,0.0,-0.564439480095,0.0,0.0,0.0
612,4_96,4,96,0.0,0.0,0.0720196932808,0.997403210231,0.0,0.0,-0.593411945678,0.0,0.0,0.0
613,4_97,4,97,0.0,0.0,0.056170023159699996,0.998421217973,0.0,0.0,-0.549604181453,0.0,0.0,0.0
614,4_98,4,98,0.0,0.0,0.0389982168667,0.999239280193,0.0,0.0,-0.529009296279,0.0,0.0,0.0
615,4_99,4,99,0.0,0.0,0.0234725225039,0.999724482389,0.0,0.0,-0.570548132477,0.0,0.0,0.0
616,4_100,4,100,0.0,0.0,0.004363309284750001,0.9999904807209999,0.0,0.0,-0.581369173839,0.0,0.0,0.0
617,4_101,4,101,0.0,0.0,-0.000785398082652,0.999999691575,0.0,0.0,-0.555014702134,0.0,0.0,0.0
618,4_102,4,102,0.0,0.0,-0.0157945729487,0.999875257952,0.0,0.0,-0.539655804717,0.0,0.0,0.0
619,4_103,4,103,0.0,0.0,-0.023298037309,0.99972856389,0.0,0.0,-0.5471607205,0.0,0.0,0.0
620,4_104,4,104,0.0,0.0,-0.0389982168667,0.999239280193,0.0,0.0,-0.563915881319,0.0,0.0,0.0
621,4_105,4,105,0.0,0.0,-0.0576511484991,0.9983367894040001,0.0,0.0,-0.5647885459449999,0.0,0.0,0.0
622,4_106,4,106,0.0,0.0,-0.07376037970360001,0.9972759930859999,0.0,0.0,-0.61697389058,0.0,0.0,0.0
623,4_107,4,107,0.0,0.0,-0.0910671080995,0.995844757893,0.0,0.0,-0.407708913266,0.0,0.0,0.0
624,4_108,4,108,0.0,0.0,-0.09367390851910001,0.995602932329,0.0,0.0,-0.24347343065299998,0.0,0.0,0.0
625,4_109,4,109,0.0,0.0,-0.09905924140389999,0.9950815377109999,0.0,0.0,-0.217118958948,0.0,0.0,0.0
626,4_110,4,110,0.0,0.0,-0.106697922982,0.994291483033,0.0,0.0,-0.306305283725,0.0,0.0,0.0
627,4_111,4,111,0.0,0.0,-0.109907788332,0.9939417880660001,0.0,0.0,-0.35046211380000003,0.0,0.0,0.0
628,4_112,4,112,0.0,0.0,-0.11927044898499999,0.992861803072,0.0,0.0,-0.338244809037,0.0,0.0,0.0
629,4_113,4,113,0.0,0.0,-0.127670498691,0.9918166381769999,0.0,0.0,-0.07888888219010001,0.0,0.0,0.0
630,4_114,4,114,0.0,0.0,-0.12741083733,0.991850028246,0.0,0.0,0.0610865238198,0.0,0.0,0.0
631,4_115,4,115,0.0,0.0,-0.127151167237,0.991883350334,0.0,0.0,-0.0190240888467,0.0,0.0,0.0
632,4_116,4,116,0.0,0.0,-0.127757050534,0.991805493047,0.0,0.0,-0.0659734457254,0.0,0.0,0.0
633,4_117,4,117,0.0,0.0,-0.12853597326400001,0.991704847007,0.0,0.0,0.00226892802759,0.0,0.0,0.0
634,4_118,4,118,0.0,0.0,-0.129141747261,0.9916261438230001,0.0,0.0,-0.028274333882299996,0.0,0.0,0.0
635,4_119,4,119,0.0,0.0,-0.129920528703,0.9915244103,0.0,0.0,-0.024783675378299997,0.0,0.0,0.0
636,4_120,4,120,0.0,0.0,-0.130353150461,0.9914676273909999,0.0,0.0,0.00261799387799,0.0,0.0,0.0
637,4_121,4,121,0.0,0.0,-0.130699230003,0.991422065155,0.0,0.0,-0.017278759594700002,0.0,0.0,0.0
638,4_122,4,122,0.0,0.0,-0.130872263805,0.9913992387360001,0.0,0.0,0.0010471975512,0.0,0.0,0.0
639,4_123,4,123,0.0,0.0,-0.131391341269,0.991330578283,0.0,0.0,-0.041189770347099995,0.0,0.0,0.0
640,4_124,4,124,0.0,0.0,-0.131823878312,0.9912731536299999,0.0,0.0,-0.0406661715715,0.0,0.0,0.0
641,4_125,4,125,0.0,0.0,-0.132515885343,0.9911808816419999,0.0,0.0,-0.0178023583703,0.0,0.0,0.0
642,4_126,4,126,0.0,0.0,-0.133121338527,0.9910997473659999,0.0,0.0,-0.0165806278939,0.0,0.0,0.0
643,4_127,4,127,0.0,0.0,-0.13381322418199998,0.991006569622,0.0,0.0,-0.0342084533391,0.0,0.0,0.0
644,4_128,4,128,0.0,0.0,-0.134418570642,0.9909246428799999,0.0,0.0,-0.0523598775598,0.0,0.0,0.0
645,5_0,5,0,0.0,0.0,-0.135629112858,0.990759680117,0.0,0.0,-0.0286233997327,0.0,0.0,0.0
646,5_1,5,1,0.0,0.0,-0.13588848848500001,0.9907241385459999,0.0,0.0,0.00314159265359,0.0,0.0,0.0
647,5_2,5,2,0.0,0.0,-0.135974944959,0.990712276266,0.0,0.0,-0.009250245035569999,0.0,0.0,0.0
648,5_3,5,3,0.0,0.0,-0.13675300654300002,0.990605176244,0.0,0.0,-0.0345575191895,0.0,0.0,0.0
649,5_4,5,4,0.0,0.0,-0.137530983771,0.990497465167,0.0,0.0,-0.00820304748437,0.0,0.0,0.0
650,5_5,5,5,0.0,0.0,-0.137617420457,0.990485459553,0.0,0.0,-0.00593411945678,0.0,0.0,0.0
651,5_6,5,6,0.0,0.0,-0.138308876163,0.9903891431020001,0.0,0.0,-0.0389208423195,0.0,0.0,0.0
652,5_7,5,7,0.0,0.0,-0.139432347762,0.990231599373,0.0,0.0,-0.0321140582367,0.0,0.0,0.0
653,5_8,5,8,0.0,0.0,-0.13969158500700002,0.990195062136,0.0,0.0,-0.0268780704807,0.0,0.0,0.0
654,5_9,5,9,0.0,0.0,-0.140296434649,0.990109544659,0.0,0.0,-0.010471975512,0.0,0.0,0.0
655,5_10,5,10,0.0,0.0,-0.140728438067,0.990048234542,0.0,0.0,-0.022863813201099998,0.0,0.0,0.0
656,5_11,5,11,0.0,0.0,-0.140728438067,0.990048234542,0.0,0.0,-0.0005235987755980001,0.0,0.0,0.0
657,5_12,5,12,0.0,0.0,-0.141419587774,0.989949746297,0.0,0.0,-0.0483456202802,0.0,0.0,0.0
658,5_13,5,13,0.0,0.0,-0.142628933706,0.989776230908,0.0,0.0,0.00157079632679,0.0,0.0,0.0
659,5_14,5,14,0.0,0.0,-0.142542558892,0.9897886738609999,0.0,0.0,-0.013962634016,0.0,0.0,0.0
660,5_15,5,15,0.0,0.0,-0.14349262199100002,0.9896513868200001,0.0,0.0,-0.0366519142919,0.0,0.0,0.0
661,5_16,5,16,0.0,0.0,-0.144874295681,0.9894500687000001,0.0,0.0,-0.027925268031900003,0.0,0.0,0.0
662,5_17,5,17,0.0,0.0,-0.14470160186,0.9894753389650001,0.0,0.0,-0.010646508437200001,0.0,0.0,0.0
663,5_18,5,18,0.0,0.0,-0.144874295681,0.9894500687000001,0.0,0.0,-0.0237364778271,0.0,0.0,0.0
664,5_19,5,19,0.0,0.0,-0.146083028562,0.989272332963,0.0,0.0,-0.049567350756599994,0.0,0.0,0.0
665,5_20,5,20,0.0,0.0,-0.14651466612800002,0.989208498048,0.0,0.0,-0.0010471975512,0.0,0.0,0.0
666,5_21,5,21,0.0,0.0,-0.146946275799,0.9891444748010001,0.0,0.0,-0.0328121899375,0.0,0.0,0.0
667,5_22,5,22,0.0,0.0,-0.14755048232,0.989054525882,0.0,0.0,-0.0415388361975,0.0,0.0,0.0
668,5_23,5,23,0.0,0.0,-0.14824093662499999,0.9889512751940001,0.0,0.0,-0.0287979326579,0.0,0.0,0.0
669,5_24,5,24,0.0,0.0,-0.14849983838,0.9889124319179999,0.0,0.0,-0.00366519142919,0.0,0.0,0.0
670,5_25,5,25,0.0,0.0,-0.14875872995699999,0.988873520862,0.0,0.0,-0.0375245789179,0.0,0.0,0.0
671,5_26,5,26,0.0,0.0,-0.15057068452400002,0.988599245884,0.0,0.0,-0.061261056745,0.0,0.0,0.0
672,5_27,5,27,0.0,0.0,-0.150829494038,0.988559792693,0.0,0.0,-0.0242600766027,0.0,0.0,0.0
673,5_28,5,28,0.0,0.0,-0.15177837367799998,0.988414551331,0.0,0.0,-0.0254818070791,0.0,0.0,0.0
674,5_29,5,29,0.0,0.0,-0.15177837367799998,0.988414551331,0.0,0.0,0.00226892802759,0.0,0.0,0.0
675,5_30,5,30,0.0,0.0,-0.152554625759,0.988295040036,0.0,0.0,-0.0387463093943,0.0,0.0,0.0
676,5_31,5,31,0.0,0.0,-0.152985836284,0.9882283814470001,0.0,0.0,-0.0275762021815,0.0,0.0,0.0
677,5_32,5,32,0.0,0.0,-0.15333078373700001,0.98817491911,0.0,0.0,-0.0342084533391,0.0,0.0,0.0
678,5_33,5,33,0.0,0.0,-0.153417017683,0.9881615347130001,0.0,0.0,0.00488692190558,0.0,0.0,0.0
679,5_34,5,34,0.0,0.0,-0.153589482068,0.9881347433409999,0.0,0.0,-0.0287979326579,0.0,0.0,0.0
680,5_35,5,35,0.0,0.0,-0.154279292772,0.9880272768610001,0.0,0.0,-0.024783675378299997,0.0,0.0,0.0
681,5_36,5,36,0.0,0.0,-0.15522765964500002,0.987878724177,0.0,0.0,-0.0301941960595,0.0,0.0,0.0
682,5_37,5,37,0.0,0.0,-0.155917291214,0.987770114096,0.0,0.0,-0.0136135681656,0.0,0.0,0.0
683,5_38,5,38,0.0,0.0,-0.156693035879,0.9876473523010001,0.0,0.0,-0.033684854563500004,0.0,0.0,0.0
684,5_39,5,39,0.0,0.0,-0.157296326041,0.9875514497050001,0.0,0.0,-0.0193731546971,0.0,0.0,0.0
685,5_40,5,40,0.0,0.0,-0.15772721166200002,0.987482722229,0.0,0.0,-0.0185004900711,0.0,0.0,0.0
686,5_41,5,41,0.0,0.0,-0.158244234762,0.9874000010959999,0.0,0.0,-0.0193731546971,0.0,0.0,0.0
687,5_42,5,42,0.0,0.0,-0.158502730052,0.987358539015,0.0,0.0,-0.0101229096616,0.0,0.0,0.0
688,5_43,5,43,0.0,0.0,-0.15884737353700001,0.9873031509729999,0.0,0.0,-0.0158824961931,0.0,0.0,0.0
689,5_44,5,44,0.0,0.0,-0.159708897478,0.987164154569,0.0,0.0,-0.027925268031900003,0.0,0.0,0.0
690,5_45,5,45,0.0,0.0,-0.160398029092,0.987052416168,0.0,0.0,-0.010471975512,0.0,0.0,0.0
691,5_46,5,46,0.0,0.0,-0.160484165054,0.987038415041,0.0,0.0,-0.007679448708779999,0.0,0.0,0.0
692,5_47,5,47,0.0,0.0,-0.160742565604,0.98699636656,0.0,0.0,-0.0134390352404,0.0,0.0,0.0
693,5_48,5,48,0.0,0.0,-0.161948288881,0.98679924591,0.0,0.0,-0.03525565089030001,0.0,0.0,0.0
694,5_49,5,49,0.0,0.0,-0.162120515372,0.986770965572,0.0,0.0,-0.022165681500300002,0.0,0.0,0.0
695,5_50,5,50,0.0,0.0,-0.16263716519500002,0.986685944208,0.0,0.0,-0.010646508437200001,0.0,0.0,0.0
696,5_51,5,51,0.0,0.0,-0.16289547339500002,0.986643332085,0.0,0.0,-0.0267035375555,0.0,0.0,0.0
697,5_52,5,52,0.0,0.0,-0.163239866957,0.986586410729,0.0,0.0,-0.04258603374869999,0.0,0.0,0.0
698,5_53,5,53,0.0,0.0,-0.164531165327,0.98637188506,0.0,0.0,-0.0291469985083,0.0,0.0,0.0
699,5_54,5,54,0.0,0.0,-0.16470331719,0.9863431539309999,0.0,0.0,-0.0010471975512,0.0,0.0,0.0
700,5_55,5,55,0.0,0.0,-0.16470331719,0.9863431539309999,0.0,0.0,0.004363323129989999,0.0,0.0,0.0
701,5_56,5,56,0.0,0.0,-0.165477938413,0.9862134920479999,0.0,0.0,-0.042236967898300004,0.0,0.0,0.0
702,5_57,5,57,0.0,0.0,-0.165908239462,0.986141194799,0.0,0.0,-0.037873644768300005,0.0,0.0,0.0
703,5_58,5,58,0.0,0.0,-0.166424559018,0.986054190273,0.0,0.0,0.000698131700798,0.0,0.0,0.0
704,5_59,5,59,0.0,0.0,-0.166510607845,0.9860396632359999,0.0,0.0,-0.0183259571459,0.0,0.0,0.0
705,5_60,5,60,0.0,0.0,-0.168145293887,0.9857622229240001,0.0,0.0,-0.0703367688554,0.0,0.0,0.0
706,5_61,5,61,0.0,0.0,-0.16874743035300002,0.985659324893,0.0,0.0,0.0050614548307799994,0.0,0.0,0.0
707,5_62,5,62,0.0,0.0,-0.16874743035300002,0.985659324893,0.0,0.0,-0.00750491578358,0.0,0.0,0.0
708,5_63,5,63,0.0,0.0,-0.16909148007599997,0.98560036088,0.0,0.0,-0.0392699081699,0.0,0.0,0.0
709,5_64,5,64,0.0,0.0,-0.170209499166,0.9854078984829999,0.0,0.0,-0.0232128790515,0.0,0.0,0.0
710,5_65,5,65,0.0,0.0,-0.17072543417999997,0.985318641925,0.0,0.0,0.00226892802759,0.0,0.0,0.0
711,5_66,5,66,0.0,0.0,-0.171241322388,0.985229115235,0.0,0.0,-0.041015237421900004,0.0,0.0,0.0
712,5_67,5,67,0.0,0.0,-0.171843132619,0.985124326048,0.0,0.0,-0.008901179185170001,0.0,0.0,0.0
713,5_68,5,68,0.0,0.0,-0.171843132619,0.985124326048,0.0,0.0,0.000349065850399,0.0,0.0,0.0
714,5_69,5,69,0.0,0.0,-0.172444878725,0.9850191692560001,0.0,0.0,-0.0466002910282,0.0,0.0,0.0
715,5_70,5,70,0.0,0.0,-0.17450751832699998,0.9846558414219999,0.0,0.0,-0.08011061266649999,0.0,0.0,0.0
716,5_71,5,71,0.0,0.0,-0.17536672609200002,0.984503179974,0.0,0.0,-0.0012217304764,0.0,0.0,0.0
717,5_72,5,72,0.0,0.0,-0.175280811314,0.98451847986,0.0,0.0,-0.0539306738866,0.0,0.0,0.0
718,5_73,5,73,0.0,0.0,-0.175796279934,0.98442656809,0.0,0.0,-0.05201081170940001,0.0,0.0,0.0
719,5_74,5,74,0.0,0.0,-0.17691296308499999,0.984226500097,0.0,0.0,-0.0370009801423,0.0,0.0,0.0
720,5_75,5,75,0.0,0.0,-0.17665528713,0.9842727820730001,0.0,0.0,0.0101229096616,0.0,0.0,0.0
721,5_76,5,76,0.0,0.0,-0.176569392453,0.984288194407,0.0,0.0,0.0038397243543899996,0.0,0.0,0.0
722,5_77,5,77,0.0,0.0,-0.17742827860100002,0.9841337337739999,0.0,0.0,-0.0427605666739,0.0,0.0,0.0
723,5_78,5,78,0.0,0.0,-0.17794354547400001,0.9840406976459999,0.0,0.0,-0.0275762021815,0.0,0.0,0.0
724,5_79,5,79,0.0,0.0,-0.178115290264,0.984009625651,0.0,0.0,0.006981317007979999,0.0,0.0,0.0
725,5_80,5,80,0.0,0.0,-0.17794354547400001,0.9840406976459999,0.0,0.0,0.0190240888467,0.0,0.0,0.0
726,5_81,5,81,0.0,0.0,-0.178458763563,0.983947391738,0.0,0.0,-0.03473205211469999,0.0,0.0,0.0
727,5_82,5,82,0.0,0.0,-0.17863049206,0.983916229822,0.0,0.0,-0.0164060949687,0.0,0.0,0.0
728,5_83,5,83,0.0,0.0,-0.179059789487,0.9838381939059999,0.0,0.0,-0.0359537825911,0.0,0.0,0.0
729,5_84,5,84,0.0,0.0,-0.179489052822,0.983759970682,0.0,0.0,0.00453785605519,0.0,0.0,0.0
730,5_85,5,85,0.0,0.0,-0.180004123711,0.9836658555869999,0.0,0.0,-0.013788101090799998,0.0,0.0,0.0
731,5_86,5,86,0.0,0.0,-0.18043331176,0.983587220335,0.0,0.0,-0.0268780704807,0.0,0.0,0.0
732,5_87,5,87,0.0,0.0,-0.181119941153,0.983461014437,0.0,0.0,-0.009075712110370001,0.0,0.0,0.0
733,5_88,5,88,0.0,0.0,-0.181463222767,0.983397731736,0.0,0.0,-0.0195476876223,0.0,0.0,0.0
734,5_89,5,89,0.0,0.0,-0.182321329976,0.98323900077,0.0,0.0,-0.0232128790515,0.0,0.0,0.0
735,5_90,5,90,0.0,0.0,-0.18309350776900002,0.983095502692,0.0,0.0,-0.009250245035569999,0.0,0.0,0.0
736,5_91,5,91,0.0,0.0,-0.183436661675,0.983031531108,0.0,0.0,-0.0253072741539,0.0,0.0,0.0
737,5_92,5,92,0.0,0.0,-0.183865572622,0.9829513981899999,0.0,0.0,-0.022863813201099998,0.0,0.0,0.0
738,5_93,5,93,0.0,0.0,-0.184637524056,0.9828066873549999,0.0,0.0,-0.00610865238198,0.0,0.0,0.0
739,5_94,5,94,0.0,0.0,-0.18489481591499998,0.9827583156849999,0.0,0.0,-0.00523598775598,0.0,0.0,0.0
740,5_95,5,95,0.0,0.0,-0.18532360751,0.9826775465530001,0.0,0.0,-0.027227136331099997,0.0,0.0,0.0
741,5_96,5,96,0.0,0.0,-0.185409361597,0.9826613702760001,0.0,0.0,-0.011868238913600001,0.0,0.0,0.0
742,5_97,5,97,0.0,0.0,-0.18558086553599998,0.982628995271,0.0,0.0,-0.00593411945678,0.0,0.0,0.0
743,5_98,5,98,0.0,0.0,-0.186181084768,0.982515447041,0.0,0.0,-0.0181514242207,0.0,0.0,0.0
744,5_99,5,99,0.0,0.0,-0.186181084768,0.982515447041,0.0,0.0,0.00715584993318,0.0,0.0,0.0
745,5_100,5,100,0.0,0.0,-0.185838110843,0.9825803766399999,0.0,0.0,0.00942477796077,0.0,0.0,0.0
746,5_101,5,101,0.0,0.0,-0.186609770269,0.982434116692,0.0,0.0,-0.044505895925900006,0.0,0.0,0.0
747,5_102,5,102,0.0,0.0,-0.187038420242,0.9823525993009999,0.0,0.0,-0.047996554429800005,0.0,0.0,0.0
748,5_103,5,103,0.0,0.0,-0.187981324723,0.982172602731,0.0,0.0,-0.0033161255787899995,0.0,0.0,0.0
749,5_104,5,104,0.0,0.0,-0.18789561327799997,0.9821890034559999,0.0,0.0,-0.0050614548307799994,0.0,0.0,0.0
750,5_105,5,105,0.0,0.0,-0.187981324723,0.982172602731,0.0,0.0,-0.0198967534727,0.0,0.0,0.0
751,5_106,5,106,0.0,0.0,-0.188752663223,0.982024659632,0.0,0.0,-0.0219911485751,0.0,0.0,0.0
752,5_107,5,107,0.0,0.0,-0.188924055984,0.9819917011210001,0.0,0.0,-0.013089969390000001,0.0,0.0,0.0
753,5_108,5,108,0.0,0.0,-0.18926682423500002,0.98192569436,0.0,0.0,-0.00314159265359,0.0,0.0,0.0
754,5_109,5,109,0.0,0.0,-0.189780933359,0.981826459887,0.0,0.0,-0.021816615649900003,0.0,0.0,0.0
755,5_110,5,110,0.0,0.0,-0.189866613158,0.981809894637,0.0,0.0,-0.009250245035569999,0.0,0.0,0.0
756,5_111,5,111,0.0,0.0,-0.190294990453,0.98172695624,0.0,0.0,-0.0127409035396,0.0,0.0,0.0
757,5_112,5,112,0.0,0.0,-0.190466331231,0.981693728546,0.0,0.0,-0.0179768912955,0.0,0.0,0.0
758,5_113,5,113,0.0,0.0,-0.190980318733,0.981593866045,0.0,0.0,-0.022340214425499997,0.0,0.0,0.0
759,5_114,5,114,0.0,0.0,-0.19175120177000002,0.9814435677200002,0.0,0.0,-0.0144862327916,0.0,0.0,0.0
760,5_115,5,115,0.0,0.0,-0.191922493066,0.981410085874,0.0,0.0,-0.00820304748437,0.0,0.0,0.0
761,5_116,5,116,0.0,0.0,-0.192950117883,0.9812085670280001,0.0,0.0,-0.022340214425499997,0.0,0.0,0.0
762,5_117,5,117,0.0,0.0,-0.19329261252399998,0.981141154954,0.0,0.0,-0.013089969390000001,0.0,0.0,0.0
763,5_118,5,118,0.0,0.0,-0.19346385101500002,0.981107404085,0.0,0.0,0.000174532925199,0.0,0.0,0.0
764,5_119,5,119,0.0,0.0,-0.193891921448,0.9810228961640001,0.0,0.0,-0.0127409035396,0.0,0.0,0.0
765,5_120,5,120,0.0,0.0,-0.19457675732500002,0.980887295008,0.0,0.0,-0.0212930168743,0.0,0.0,0.0
766,5_121,5,121,0.0,0.0,-0.194662355149,0.980870311248,0.0,0.0,0.0150098315672,0.0,0.0,0.0
767,5_122,5,122,0.0,0.0,-0.19526149836800002,0.980751215781,0.0,0.0,-0.0418879020479,0.0,0.0,0.0
768,5_123,5,123,0.0,0.0,-0.19611729080200002,0.980580444557,0.0,0.0,-0.028274333882299996,0.0,0.0,0.0
769,5_124,5,124,0.0,0.0,-0.196202861842,0.980563326361,0.0,0.0,-0.00366519142919,0.0,0.0,0.0
770,5_125,5,125,0.0,0.0,-0.19628843138799998,0.980546200698,0.0,0.0,-0.000349065850399,0.0,0.0,0.0
771,5_126,5,126,0.0,0.0,-0.197058489953,0.980391733715,0.0,0.0,-0.037873644768300005,0.0,0.0,0.0
772,5_127,5,127,0.0,0.0,-0.197315149153,0.980340110326,0.0,0.0,-0.0230383461263,0.0,0.0,0.0
773,5_128,5,128,0.0,0.0,-0.197571794829,0.980288419746,0.0,0.0,-0.010646508437200001,0.0,0.0,0.0
774,6_0,6,0,0.0,0.0,-0.197657340379,0.980271174622,0.0,0.0,0.0198967534727,0.0,0.0,0.0
775,6_1,6,1,0.0,0.0,-0.197571794829,0.980288419746,0.0,0.0,0.0010471975512,0.0,0.0,0.0
776,6_2,6,2,0.0,0.0,-0.198854819736,0.9800289590960001,0.0,0.0,-0.061784655520599994,0.0,0.0,0.0
777,6_3,6,3,0.0,0.0,-0.199282419096,0.979942099024,0.0,0.0,-0.035081117965099995,0.0,0.0,0.0
778,6_4,6,4,0.0,0.0,-0.19953896050500003,0.9798898934270001,0.0,0.0,-0.00314159265359,0.0,0.0,0.0
779,6_5,6,5,0.0,0.0,-0.19962447127,0.979872476637,0.0,0.0,-0.004363323129989999,0.0,0.0,0.0
780,6_6,6,6,0.0,0.0,-0.199795488238,0.97983762067,0.0,0.0,-0.0181514242207,0.0,0.0,0.0
781,6_7,6,7,0.0,0.0,-0.200137503911,0.979767819194,0.0,0.0,-0.0404916386463,0.0,0.0,0.0
782,6_8,6,8,0.0,0.0,-0.20090694995,0.9796103293970001,0.0,0.0,-0.006981317007979999,0.0,0.0,0.0
783,6_9,6,9,0.0,0.0,-0.20124888621599998,0.979540139962,0.0,0.0,-0.00226892802759,0.0,0.0,0.0
784,6_10,6,10,0.0,0.0,-0.201334366453,0.979522573954,0.0,0.0,-0.0178023583703,0.0,0.0,0.0
785,6_11,6,11,0.0,0.0,-0.202018153094,0.979381777358,0.0,0.0,-0.0181514242207,0.0,0.0,0.0
786,6_12,6,12,0.0,0.0,-0.20218908438299998,0.979346503622,0.0,0.0,-0.0214675497995,0.0,0.0,0.0
787,6_13,6,13,0.0,0.0,-0.20244546976599997,0.979293537082,0.0,0.0,-0.00855211333477,0.0,0.0,0.0
788,6_14,6,14,0.0,0.0,-0.20295819888900002,0.979187402648,0.0,0.0,-0.023387411976700002,0.0,0.0,0.0
789,6_15,6,15,0.0,0.0,-0.2032999874,0.979116497217,0.0,0.0,-0.00837758040957,0.0,0.0,0.0
790,6_16,6,16,0.0,0.0,-0.20347087236900002,0.979080999763,0.0,0.0,-0.00523598775598,0.0,0.0,0.0
791,6_17,6,17,0.0,0.0,-0.204068920917,0.978956523813,0.0,0.0,-0.0317649923863,0.0,0.0,0.0
792,6_18,6,18,0.0,0.0,-0.204752311714,0.978813818276,0.0,0.0,-0.0287979326579,0.0,0.0,0.0
793,6_19,6,19,0.0,0.0,-0.205093969711,0.9787422866050001,0.0,0.0,0.00279252680319,0.0,0.0,0.0
794,6_20,6,20,0.0,0.0,-0.204923143834,0.978778067348,0.0,0.0,0.00942477796077,0.0,0.0,0.0
795,6_21,6,21,0.0,0.0,-0.205691811048,0.978616819224,0.0,0.0,-0.026005405854700004,0.0,0.0,0.0
796,6_22,6,22,0.0,0.0,-0.206631120843,0.978418918408,0.0,0.0,-0.0389208423195,0.0,0.0,0.0
797,6_23,6,23,0.0,0.0,-0.206801884011,0.978382839572,0.0,0.0,-0.000698131700798,0.0,0.0,0.0
798,6_24,6,24,0.0,0.0,-0.20731413569600002,0.9782744242489999,0.0,0.0,-0.0207694180987,0.0,0.0,0.0
799,6_25,6,25,0.0,0.0,-0.207655605253,0.9782019983660001,0.0,0.0,-0.00994837673637,0.0,0.0,0.0
800,6_26,6,26,0.0,0.0,-0.208253116068,0.9780749662720001,0.0,0.0,-0.0237364778271,0.0,0.0,0.0
801,6_27,6,27,0.0,0.0,-0.20842381917999997,0.97803860435,0.0,0.0,-0.0185004900711,0.0,0.0,0.0
802,6_28,6,28,0.0,0.0,-0.20842381917999997,0.97803860435,0.0,0.0,-0.000174532925199,0.0,0.0,0.0
803,6_29,6,29,0.0,0.0,-0.208509168356,0.978020412216,0.0,0.0,-0.017453292519900004,0.0,0.0,0.0
804,6_30,6,30,0.0,0.0,-0.20910656808800002,0.977892858744,0.0,0.0,-0.020071286397900002,0.0,0.0,0.0
805,6_31,6,31,0.0,0.0,-0.209959860863,0.977710006508,0.0,0.0,-0.006632251157579999,0.0,0.0,0.0
806,6_32,6,32,0.0,0.0,-0.209959860863,0.977710006508,0.0,0.0,0.00157079632679,0.0,0.0,0.0
807,6_33,6,33,0.0,0.0,-0.209959860863,0.977710006508,0.0,0.0,0.012217304764,0.0,0.0,0.0
808,6_34,6,34,0.0,0.0,-0.21055707070799998,0.977581566916,0.0,0.0,-0.0389208423195,0.0,0.0,0.0
809,6_35,6,35,0.0,0.0,-0.21123950002300002,0.977434332132,0.0,0.0,-0.017453292519900004,0.0,0.0,0.0
810,6_36,6,36,0.0,0.0,-0.21132479645500002,0.977415894286,0.0,0.0,-0.0012217304764,0.0,0.0,0.0
811,6_37,6,37,0.0,0.0,-0.211580676093,0.977360536089,0.0,0.0,-0.010646508437200001,0.0,0.0,0.0
812,6_38,6,38,0.0,0.0,-0.21166596608399998,0.97734206847,0.0,0.0,0.00593411945678,0.0,0.0,0.0
813,6_39,6,39,0.0,0.0,-0.21209239184700002,0.9772496187369999,0.0,0.0,-0.0102974425868,0.0,0.0,0.0
814,6_40,6,40,0.0,0.0,-0.21226295085000002,0.9772125867470001,0.0,0.0,-0.0249582083035,0.0,0.0,0.0
815,6_41,6,41,0.0,0.0,-0.21285985640900001,0.97708274037,0.0,0.0,-0.0013962634016,0.0,0.0,0.0
816,6_42,6,42,0.0,0.0,-0.21311564877500003,0.977026980307,0.0,0.0,-0.028448866807499997,0.0,0.0,0.0
817,6_43,6,43,0.0,0.0,-0.213968184403,0.976840629818,0.0,0.0,-0.00942477796077,0.0,0.0,0.0
818,6_44,6,44,0.0,0.0,-0.213968184403,0.976840629818,0.0,0.0,-0.004363323129989999,0.0,0.0,0.0
819,6_45,6,45,0.0,0.0,-0.21413867199499997,0.976803270447,0.0,0.0,-0.00488692190558,0.0,0.0,0.0
820,6_46,6,46,0.0,0.0,-0.21413867199499997,0.976803270447,0.0,0.0,-0.004014257279590001,0.0,0.0,0.0
821,6_47,6,47,0.0,0.0,-0.214735327167,0.9766722783339999,0.0,0.0,-0.0160570291183,0.0,0.0,0.0
822,6_48,6,48,0.0,0.0,-0.215502337472,0.97650332439,0.0,0.0,-0.054454272662199994,0.0,0.0,0.0
823,6_49,6,49,0.0,0.0,-0.215757978057,0.976446872546,0.0,0.0,-0.012042771838799999,0.0,0.0,0.0
824,6_50,6,50,0.0,0.0,-0.216013603853,0.976390353778,0.0,0.0,-0.0038397243543899996,0.0,0.0,0.0
825,6_51,6,51,0.0,0.0,-0.21618401282699998,0.976352637421,0.0,0.0,-0.0280998009571,0.0,0.0,0.0
826,6_52,6,52,0.0,0.0,-0.21695077164,0.97618254578,0.0,0.0,-0.0186750229963,0.0,0.0,0.0
827,6_53,6,53,0.0,0.0,-0.21712114433000002,0.976144665859,0.0,0.0,-0.0115191730632,0.0,0.0,0.0
828,6_54,6,54,0.0,0.0,-0.217291510406,0.9761067562029999,0.0,0.0,-0.00593411945678,0.0,0.0,0.0
829,6_55,6,55,0.0,0.0,-0.217291510406,0.9761067562029999,0.0,0.0,0.000349065850399,0.0,0.0,0.0
830,6_56,6,56,0.0,0.0,-0.218143241397,0.975916761939,0.0,0.0,-0.023387411976700002,0.0,0.0,0.0
831,6_57,6,57,0.0,0.0,-0.218143241397,0.975916761939,0.0,0.0,0.00872664625997,0.0,0.0,0.0
832,6_58,6,58,0.0,0.0,-0.218058075762,0.975935794812,0.0,0.0,0.009599310885969999,0.0,0.0,0.0
833,6_59,6,59,0.0,0.0,-0.217802568899,0.975992848837,0.0,0.0,0.0293215314335,0.0,0.0,0.0
834,6_60,6,60,0.0,0.0,-0.21771739662599998,0.97601185198,0.0,0.0,0.00488692190558,0.0,0.0,0.0
835,6_61,6,61,0.0,0.0,-0.21856904463500001,0.975821486096,0.0,0.0,-0.0275762021815,0.0,0.0,0.0
836,6_62,6,62,0.0,0.0,-0.220101591162,0.975476954914,0.0,0.0,-0.0443313630007,0.0,0.0,0.0
837,6_63,6,63,0.0,0.0,-0.219675938108,0.975572899489,0.0,0.0,0.026005405854700004,0.0,0.0,0.0
838,6_64,6,64,0.0,0.0,-0.21976107206700002,0.975553725432,0.0,0.0,-0.0298451302091,0.0,0.0,0.0
839,6_65,6,65,0.0,0.0,-0.220442083439,0.975400065537,0.0,0.0,-0.0125663706144,0.0,0.0,0.0
840,6_66,6,66,0.0,0.0,-0.22078254885499998,0.97532305731,0.0,0.0,0.00157079632679,0.0,0.0,0.0
841,6_67,6,67,0.0,0.0,-0.22086766100699998,0.9753037866840001,0.0,0.0,-0.0237364778271,0.0,0.0,0.0
842,6_68,6,68,0.0,0.0,-0.22188887545400002,0.975071959883,0.0,0.0,-0.0317649923863,0.0,0.0,0.0
843,6_69,6,69,0.0,0.0,-0.22222922625100003,0.9749944466509999,0.0,0.0,-0.010821041362399999,0.0,0.0,0.0
844,6_70,6,70,0.0,0.0,-0.22222922625100003,0.9749944466509999,0.0,0.0,0.00645771823238,0.0,0.0,0.0
845,6_71,6,71,0.0,0.0,-0.22469595715100002,0.974428923442,0.0,0.0,-0.23509585024399998,0.0,0.0,0.0
846,6_72,6,72,0.0,0.0,-0.233699921703,0.972308771222,0.0,0.0,-0.28029987787,0.0,0.0,0.0
847,6_73,6,73,0.0,0.0,-0.241244442494,0.970464383152,0.0,0.0,-0.23422318561799998,0.0,0.0,0.0
848,6_74,6,74,0.0,0.0,-0.247252691981,0.96895103401,0.0,0.0,-0.214326432145,0.0,0.0,0.0
849,6_75,6,75,0.0,0.0,-0.254686337914,0.9670237170200001,0.0,0.0,-0.225671072283,0.0,0.0,0.0
850,6_76,6,76,0.0,0.0,-0.256711107581,0.966488182672,0.0,0.0,-0.22741640153499998,0.0,0.0,0.0
851,6_77,6,77,0.0,0.0,-0.268835767801,0.963186030812,0.0,0.0,-0.657290996301,0.0,0.0,0.0
852,6_78,6,78,0.0,0.0,-0.287945566665,0.9576467775949999,0.0,0.0,-0.598473400509,0.0,0.0,0.0
853,6_79,6,79,0.0,0.0,-0.29312269446999994,0.9560748328380001,0.0,0.0,-0.57735491656,0.0,0.0,0.0
854,6_80,6,80,0.0,0.0,-0.306941377168,0.951728422914,0.0,0.0,-0.526391302401,0.0,0.0,0.0
855,6_81,6,81,0.0,0.0,-0.314075307775,0.949398073016,0.0,0.0,-0.533023553559,0.0,0.0,0.0
856,6_82,6,82,0.0,0.0,-0.328124833917,0.944634370202,0.0,0.0,-0.5471607205,0.0,0.0,0.0
857,6_83,6,83,0.0,0.0,-0.344642923175,0.9387338576540001,0.0,0.0,-0.529009296279,0.0,0.0,0.0
858,6_84,6,84,0.0,0.0,-0.349226308593,0.937038411905,0.0,0.0,-0.5185373207680001,0.0,0.0,0.0
859,6_85,6,85,0.0,0.0,-0.36373901304300005,0.931500901981,0.0,0.0,-0.5799729104379999,0.0,0.0,0.0
860,6_86,6,86,0.0,0.0,-0.380424828643,0.9248118455940001,0.0,0.0,-0.541401133969,0.0,0.0,0.0
861,6_87,6,87,0.0,0.0,-0.384939751276,0.922941703407,0.0,0.0,-0.53372168526,0.0,0.0,0.0
862,6_88,6,88,0.0,0.0,-0.399309194613,0.916816321352,0.0,0.0,-0.558505360638,0.0,0.0,0.0
863,6_89,6,89,0.0,0.0,-0.41501085379,0.909816460192,0.0,0.0,-0.52028265002,0.0,0.0,0.0
864,6_90,6,90,0.0,0.0,-0.42995965854400003,0.902848100194,0.0,0.0,-0.5300564938310001,0.0,0.0,0.0
865,6_91,6,91,0.0,0.0,-0.443696948396,0.896176889896,0.0,0.0,-0.576307719009,0.0,0.0,0.0
866,6_92,6,92,0.0,0.0,-0.45942484456999994,0.888216647103,0.0,0.0,-0.530754625531,0.0,0.0,0.0
867,6_93,6,93,0.0,0.0,-0.47270457413999994,0.881220962975,0.0,0.0,-0.526391302401,0.0,0.0,0.0
868,6_94,6,94,0.0,0.0,-0.488392805834,0.872623897913,0.0,0.0,-0.540179403492,0.0,0.0,0.0
869,6_95,6,95,0.0,0.0,-0.501435236546,0.8651951823430001,0.0,0.0,-0.527263967027,0.0,0.0,0.0
870,6_96,6,96,0.0,0.0,-0.517205680081,0.8558611362199999,0.0,0.0,-0.598647933434,0.0,0.0,0.0
871,6_97,6,97,0.0,0.0,-0.531176785309,0.847261012173,0.0,0.0,-0.60824724432,0.0,0.0,0.0
872,6_98,6,98,0.0,0.0,-0.546832800472,0.837241833838,0.0,0.0,-0.535467014512,0.0,0.0,0.0
873,6_99,6,99,0.0,0.0,-0.558975842781,0.829183940502,0.0,0.0,-0.500036830696,0.0,0.0,0.0
874,6_100,6,100,0.0,0.0,-0.573790870196,0.819001854259,0.0,0.0,-0.562694150843,0.0,0.0,0.0
875,6_101,6,101,0.0,0.0,-0.586301665035,0.810092808003,0.0,0.0,-0.546986187575,0.0,0.0,0.0
876,6_102,6,102,0.0,0.0,-0.601257323772,0.799055461536,0.0,0.0,-0.5883504908470001,0.0,0.0,0.0
877,6_103,6,103,0.0,0.0,-0.605432907381,0.795896346681,0.0,0.0,-0.555712833835,0.0,0.0,0.0
878,6_104,6,104,0.0,0.0,-0.617379181571,0.786665714369,0.0,0.0,-0.539481271791,0.0,0.0,0.0
879,6_105,6,105,0.0,0.0,-0.6311497495049999,0.77566100437,0.0,0.0,-0.563392282544,0.0,0.0,0.0
880,6_106,6,106,0.0,0.0,-0.635067621397,0.772456546514,0.0,0.0,-0.5344198169609999,0.0,0.0,0.0
881,6_107,6,107,0.0,0.0,-0.6464569411150001,0.762950472367,0.0,0.0,-0.5567600313859999,0.0,0.0,0.0
882,6_108,6,108,0.0,0.0,-0.652429140253,0.757849732433,0.0,0.0,-0.5693264020009999,0.0,0.0,0.0
883,6_109,6,109,0.0,0.0,-0.665100031577,0.746754275513,0.0,0.0,-0.595331807855,0.0,0.0,0.0
884,6_110,6,110,0.0,0.0,-0.669065752191,0.743203215309,0.0,0.0,-0.55990162404,0.0,0.0,0.0
885,6_111,6,111,0.0,0.0,-0.682317408383,0.731056054087,0.0,0.0,-0.537735942539,0.0,0.0,0.0
886,6_112,6,112,0.0,0.0,-0.685945362789,0.72765304869,0.0,0.0,-0.531452757232,0.0,0.0,0.0
887,6_113,6,113,0.0,0.0,-0.698727498803,0.715387924428,0.0,0.0,-0.5291838292050001,0.0,0.0,0.0
888,6_114,6,114,0.0,0.0,-0.7102468097939999,0.70395274641,0.0,0.0,-0.593062879828,0.0,0.0,0.0
889,6_115,6,115,0.0,0.0,-0.714167325906,0.699975021417,0.0,0.0,-0.603709388265,0.0,0.0,0.0
890,6_116,6,116,0.0,0.0,-0.72795227954,0.685627798965,0.0,0.0,-0.592190215202,0.0,0.0,0.0
891,6_117,6,117,0.0,0.0,-0.731591719395,0.681743027916,0.0,0.0,-0.570548132477,0.0,0.0,0.0
892,6_118,6,118,0.0,0.0,-0.741975840976,0.670426618959,0.0,0.0,-0.522726110972,0.0,0.0,0.0
893,6_119,6,119,0.0,0.0,-0.7538501546199999,0.657046379169,0.0,0.0,-0.5614724203670001,0.0,0.0,0.0
894,6_120,6,120,0.0,0.0,-0.764471531423,0.644657488628,0.0,0.0,-0.619591884458,0.0,0.0,0.0
895,6_121,6,121,0.0,0.0,-0.776321517417,0.630337133282,0.0,0.0,-0.540353936417,0.0,0.0,0.0
896,6_122,6,122,0.0,0.0,-0.785964813832,0.618271228037,0.0,0.0,-0.5569345643110001,0.0,0.0,0.0
897,6_123,6,123,0.0,0.0,-0.796002002535,0.605293988043,0.0,0.0,-0.388510291494,0.0,0.0,0.0
898,6_124,6,124,0.0,0.0,-0.799107928093,0.601187590739,0.0,0.0,-0.17715091907699998,0.0,0.0,0.0
899,6_125,6,125,0.0,0.0,-0.804064443961,0.59454215154,0.0,0.0,-0.313984732434,0.0,0.0,0.0
900,6_126,6,126,0.0,0.0,-0.8096832948430001,0.58686707358,0.0,0.0,-0.320791516517,0.0,0.0,0.0
901,6_127,6,127,0.0,0.0,-0.812083526892,0.583541211356,0.0,0.0,-0.284837733925,0.0,0.0,0.0
902,6_128,6,128,0.0,0.0,-0.81649043092,0.577358966516,0.0,0.0,-0.282568805898,0.0,0.0,0.0
903,7_0,7,0,0.0,0.0,-0.819101987183,0.573647918668,0.0,0.0,0.058643062867,0.0,0.0,0.0
904,7_1,7,1,0.0,0.0,-0.818801513568,0.574076720812,0.0,0.0,0.0418879020479,0.0,0.0,0.0
905,7_2,7,2,0.0,0.0,-0.81905192384,0.573719396617,0.0,0.0,-0.011868238913600001,0.0,0.0,0.0
906,7_3,7,3,0.0,0.0,-0.8199521093250001,0.572432125595,0.0,0.0,-0.0729547627334,0.0,0.0,0.0
907,7_4,7,4,0.0,0.0,-0.820301635205,0.571931138582,0.0,0.0,-0.0605629250442,0.0,0.0,0.0
908,7_5,7,5,0.0,0.0,-0.820750575823,0.571286698852,0.0,0.0,-0.00558505360638,0.0,0.0,0.0
909,7_6,7,6,0.0,0.0,-0.820900110203,0.571071807279,0.0,0.0,-0.0225147473507,0.0,0.0,0.0
910,7_7,7,7,0.0,0.0,-0.821049588319,0.570856876565,0.0,0.0,-0.0343829862643,0.0,0.0,0.0
911,7_8,7,8,0.0,0.0,-0.821696676415,0.569925058204,0.0,0.0,-0.0275762021815,0.0,0.0,0.0
912,7_9,7,9,0.0,0.0,-0.821845854285,0.569709918989,0.0,0.0,-0.0333357887131,0.0,0.0,0.0
913,7_10,7,10,0.0,0.0,-0.8220943588899999,0.5693512668649999,0.0,0.0,-0.00244346095279,0.0,0.0,0.0
914,7_11,7,11,0.0,0.0,-0.822491640687,0.568777198031,0.0,0.0,-0.0164060949687,0.0,0.0,0.0
915,7_12,7,12,0.0,0.0,-0.8230372485680001,0.567987400802,0.0,0.0,-0.0513126800086,0.0,0.0,0.0
916,7_13,7,13,0.0,0.0,-0.823829506054,0.566837670727,0.0,0.0,-0.00942477796077,0.0,0.0,0.0
917,7_14,7,14,0.0,0.0,-0.824076757215,0.566478153345,0.0,0.0,-0.0254818070791,0.0,0.0,0.0
918,7_15,7,15,0.0,0.0,-0.8245214139049999,0.565830750324,0.0,0.0,-0.047298422729,0.0,0.0,0.0
919,7_16,7,16,0.0,0.0,-0.825409201191,0.564534897583,0.0,0.0,-0.0310668606855,0.0,0.0,0.0
920,7_17,7,17,0.0,0.0,-0.8257539019110001,0.564030578496,0.0,0.0,-0.022863813201099998,0.0,0.0,0.0
921,7_18,7,18,0.0,0.0,-0.82585233124,0.563886448662,0.0,0.0,-0.0179768912955,0.0,0.0,0.0
922,7_19,7,19,0.0,0.0,-0.826589749127,0.562804927695,0.0,0.0,-0.05654866776459999,0.0,0.0,0.0
923,7_20,7,20,0.0,0.0,-0.8271296221529999,0.562011199316,0.0,0.0,-0.026005405854700004,0.0,0.0,0.0
924,7_21,7,21,0.0,0.0,-0.827374767055,0.561650242447,0.0,0.0,-0.013788101090799998,0.0,0.0,0.0
925,7_22,7,22,0.0,0.0,-0.827913531301,0.560855761037,0.0,0.0,-0.042411500823499995,0.0,0.0,0.0
926,7_23,7,23,0.0,0.0,-0.828109256451,0.560566730532,0.0,0.0,-0.020943951023900002,0.0,0.0,0.0
927,7_24,7,24,0.0,0.0,-0.828304880698,0.560277631725,0.0,0.0,-0.022863813201099998,0.0,0.0,0.0
928,7_25,7,25,0.0,0.0,-0.828744666206,0.559626909856,0.0,0.0,-0.0312413936107,0.0,0.0,0.0
929,7_26,7,26,0.0,0.0,-0.8289887706119999,0.559265248518,0.0,0.0,-0.0548033385126,0.0,0.0,0.0
930,7_27,7,27,0.0,0.0,-0.829768843878,0.558107217055,0.0,0.0,-0.0338593874887,0.0,0.0,0.0
931,7_28,7,28,0.0,0.0,-0.830206924295,0.557455346062,0.0,0.0,-0.0158824961931,0.0,0.0,0.0
932,7_29,7,29,0.0,0.0,-0.830838802947,0.5565131476590001,0.0,0.0,-0.042236967898300004,0.0,0.0,0.0
933,7_30,7,30,0.0,0.0,-0.831033012061,0.556223096307,0.0,0.0,-0.037873644768300005,0.0,0.0,0.0
934,7_31,7,31,0.0,0.0,-0.83205094808,0.554699215611,0.0,0.0,-0.0933751149817,0.0,0.0,0.0
935,7_32,7,32,0.0,0.0,-0.832486351155,0.554045553309,0.0,0.0,-0.08307767239489999,0.0,0.0,0.0
936,7_33,7,33,0.0,0.0,-0.833162624029,0.553028066124,0.0,0.0,0.00174532925199,0.0,0.0,0.0
937,7_34,7,34,0.0,0.0,-0.833066089733,0.553173472011,0.0,0.0,0.0157079632679,0.0,0.0,0.0
938,7_35,7,35,0.0,0.0,-0.833259132945,0.552882643392,0.0,0.0,-0.017278759594700002,0.0,0.0,0.0
939,7_36,7,36,0.0,0.0,-0.833885822067,0.551936985312,0.0,0.0,-0.046774823953400005,0.0,0.0,0.0
940,7_37,7,37,0.0,0.0,-0.8341265706209999,0.5515730814540001,0.0,0.0,-0.00680678408278,0.0,0.0,0.0
941,7_38,7,38,0.0,0.0,-0.8343671603689999,0.551209072583,0.0,0.0,-0.0275762021815,0.0,0.0,0.0
942,7_39,7,39,0.0,0.0,-0.8346556583779999,0.550772123421,0.0,0.0,0.005759586531579999,0.0,0.0,0.0
943,7_40,7,40,0.0,0.0,-0.834607591265,0.550844958771,0.0,0.0,-0.00226892802759,0.0,0.0,0.0
944,7_41,7,41,0.0,0.0,-0.8352799522930001,0.549824882392,0.0,0.0,-0.045378560551899996,0.0,0.0,0.0
945,7_42,7,42,0.0,0.0,-0.83571152608,0.549168685539,0.0,0.0,-0.0310668606855,0.0,0.0,0.0
946,7_43,7,43,0.0,0.0,-0.835998955561,0.5487310327480001,0.0,0.0,-0.017453292519900004,0.0,0.0,0.0
947,7_44,7,44,0.0,0.0,-0.836525314285,0.5479282786649999,0.0,0.0,-0.035604716740699996,0.0,0.0,0.0
948,7_45,7,45,0.0,0.0,-0.836859868525,0.5474171722300001,0.0,0.0,-0.0134390352404,0.0,0.0,0.0
949,7_46,7,46,0.0,0.0,-0.837098644655,0.547051971129,0.0,0.0,-0.0291469985083,0.0,0.0,0.0
950,7_47,7,47,0.0,0.0,-0.8380521550040001,0.5455901259120001,0.0,0.0,-0.0376991118431,0.0,0.0,0.0
951,7_48,7,48,0.0,0.0,-0.83862303603,0.5447122207549999,0.0,0.0,-0.039793506945500004,0.0,0.0,0.0
952,7_49,7,49,0.0,0.0,-0.8390505933110001,0.544053399827,0.0,0.0,-0.00750491578358,0.0,0.0,0.0
953,7_50,7,50,0.0,0.0,-0.839145535763,0.543906949587,0.0,0.0,-0.0244346095279,0.0,0.0,0.0
954,7_51,7,51,0.0,0.0,-0.839762038498,0.5429546193720001,0.0,0.0,-0.03525565089030001,0.0,0.0,0.0
955,7_52,7,52,0.0,0.0,-0.840093553899,0.542441536663,0.0,0.0,-0.0101229096616,0.0,0.0,0.0
956,7_53,7,53,0.0,0.0,-0.840093553899,0.542441536663,0.0,0.0,0.000174532925199,0.0,0.0,0.0
957,7_54,7,54,0.0,0.0,-0.840330158691,0.542074925075,0.0,0.0,-0.015358897417600001,0.0,0.0,0.0
958,7_55,7,55,0.0,0.0,-0.840377460452,0.54200159037,0.0,0.0,-0.00680678408278,0.0,0.0,0.0
959,7_56,7,56,0.0,0.0,-0.8405193273360001,0.541781561494,0.0,0.0,-0.0160570291183,0.0,0.0,0.0
960,7_57,7,57,0.0,0.0,-0.840897357359,0.541194636325,0.0,0.0,-0.036302848441499995,0.0,0.0,0.0
961,7_58,7,58,0.0,0.0,-0.8411334180110001,0.54082767413,0.0,0.0,-0.0513126800086,0.0,0.0,0.0
962,7_59,7,59,0.0,0.0,-0.841227797435,0.540680860418,0.0,0.0,0.046076692252699995,0.0,0.0,0.0
963,7_60,7,60,0.0,0.0,-0.8408501260150001,0.541268016402,0.0,0.0,0.005410520681180001,0.0,0.0,0.0
964,7_61,7,61,0.0,0.0,-0.840897357359,0.541194636325,0.0,0.0,-0.0157079632679,0.0,0.0,0.0
965,7_62,7,62,0.0,0.0,-0.8416521876909999,0.540019994959,0.0,0.0,-0.0469493568786,0.0,0.0,0.0
966,7_63,7,63,0.0,0.0,-0.8418877357369999,0.539652703519,0.0,0.0,0.00366519142919,0.0,0.0,0.0
967,7_64,7,64,0.0,0.0,-0.842076058773,0.539358796389,0.0,0.0,-0.032637657012299995,0.0,0.0,0.0
968,7_65,7,65,0.0,0.0,-0.842687399907,0.538403144528,0.0,0.0,-0.035081117965099995,0.0,0.0,0.0
969,7_66,7,66,0.0,0.0,-0.842969191608,0.537961840655,0.0,0.0,-0.00645771823238,0.0,0.0,0.0
970,7_67,7,67,0.0,0.0,-0.843438330838,0.537226006513,0.0,0.0,-0.0280998009571,0.0,0.0,0.0
971,7_68,7,68,0.0,0.0,-0.843860006976,0.5365634059709999,0.0,0.0,-0.0249582083035,0.0,0.0,0.0
972,7_69,7,69,0.0,0.0,-0.844234393225,0.53597414984,0.0,0.0,-0.0225147473507,0.0,0.0,0.0
973,7_70,7,70,0.0,0.0,-0.844888578952,0.534942323205,0.0,0.0,-0.0486946861306,0.0,0.0,0.0
974,7_71,7,71,0.0,0.0,-0.84502859757,0.534721113562,0.0,0.0,-0.0244346095279,0.0,0.0,0.0
975,7_72,7,72,0.0,0.0,-0.8451685582699999,0.534499867271,0.0,0.0,-0.013962634016,0.0,0.0,0.0
976,7_73,7,73,0.0,0.0,-0.845494907948,0.5339834834839999,0.0,0.0,-0.010821041362399999,0.0,0.0,0.0
977,7_74,7,74,0.0,0.0,-0.845867492673,0.533393086605,0.0,0.0,-0.0370009801423,0.0,0.0,0.0
978,7_75,7,75,0.0,0.0,-0.845960574445,0.533245446754,0.0,0.0,-0.00733038285838,0.0,0.0,0.0
979,7_76,7,76,0.0,0.0,-0.846193166128,0.5328762760710001,0.0,0.0,-0.0300196631343,0.0,0.0,0.0
980,7_77,7,77,0.0,0.0,-0.846425596707,0.5325070039350001,0.0,0.0,-0.0169296937443,0.0,0.0,0.0
981,7_78,7,78,0.0,0.0,-0.846611425146,0.532211513228,0.0,0.0,-0.0488692190558,0.0,0.0,0.0
982,7_79,7,79,0.0,0.0,-0.847075544882,0.531472502828,0.0,0.0,-0.023387411976700002,0.0,0.0,0.0
983,7_80,7,80,0.0,0.0,-0.847400044893,0.530954954695,0.0,0.0,0.0169296937443,0.0,0.0,0.0
984,7_81,7,81,0.0,0.0,-0.847353707106,0.5310289022770001,0.0,0.0,0.00523598775598,0.0,0.0,0.0
985,7_82,7,82,0.0,0.0,-0.8476316370229999,0.5305851561420001,0.0,0.0,-0.0176278254451,0.0,0.0,0.0
986,7_83,7,83,0.0,0.0,-0.847770514843,0.530363228518,0.0,0.0,-0.0204203522483,0.0,0.0,0.0
987,7_84,7,84,0.0,0.0,-0.8479093345569999,0.530141264543,0.0,0.0,-0.012391837689200002,0.0,0.0,0.0
988,7_85,7,85,0.0,0.0,-0.848001848748,0.529993268373,0.0,0.0,-0.0185004900711,0.0,0.0,0.0
989,7_86,7,86,0.0,0.0,-0.848510214982,0.5291790009740001,0.0,0.0,-0.0127409035396,0.0,0.0,0.0
990,7_87,7,87,0.0,0.0,-0.848510214982,0.5291790009740001,0.0,0.0,-0.00244346095279,0.0,0.0,0.0
991,7_88,7,88,0.0,0.0,-0.84855639133,0.529104952474,0.0,0.0,-0.004363323129989999,0.0,0.0,0.0
992,7_89,7,89,0.0,0.0,-0.848971687629,0.528438334722,0.0,0.0,-0.03525565089030001,0.0,0.0,0.0
993,7_90,7,90,0.0,0.0,-0.8491560956800001,0.5281419555100001,0.0,0.0,-0.04136430327230001,0.0,0.0,0.0
994,7_91,7,91,0.0,0.0,-0.849524601357,0.5275490040640001,0.0,0.0,-0.0038397243543899996,0.0,0.0,0.0
995,7_92,7,92,0.0,0.0,-0.8496626842489999,0.527326580967,0.0,0.0,-0.0232128790515,0.0,0.0,0.0
996,7_93,7,93,0.0,0.0,-0.8502144333730001,0.5264365273080001,0.0,0.0,-0.0237364778271,0.0,0.0,0.0
997,7_94,7,94,0.0,0.0,-0.8503063009299999,0.526288128879,0.0,0.0,-0.025830872929500003,0.0,0.0,0.0
998,7_95,7,95,0.0,0.0,-0.8506276333849999,0.525768608156,0.0,0.0,-0.0249582083035,0.0,0.0,0.0
999,7_96,7,96,0.0,0.0,-0.850994481795,0.5251746299610001,0.0,0.0,-0.010646508437200001,0.0,0.0,0.0
1000,7_97,7,97,0.0,0.0,-0.851269345923,0.524728978323,0.0,0.0,-0.0267035375555,0.0,0.0,0.0
1001,7_98,7,98,0.0,0.0,-0.8517726572959999,0.523911576778,0.0,0.0,-0.0181514242207,0.0,0.0,0.0
1002,7_99,7,99,0.0,0.0,-0.851909787835,0.523688565266,0.0,0.0,-0.007853981633970001,0.0,0.0,0.0
1003,7_100,7,100,0.0,0.0,-0.8520925377240001,0.523391160753,0.0,0.0,-0.0136135681656,0.0,0.0,0.0
1004,7_101,7,101,0.0,0.0,-0.8523208290800001,0.5230193154339999,0.0,0.0,-0.029670597283900004,0.0,0.0,0.0
1005,7_102,7,102,0.0,0.0,-0.852776924937,0.5222753261399999,0.0,0.0,-0.021816615649900003,0.0,0.0,0.0
1006,7_103,7,103,0.0,0.0,-0.8529591814599999,0.521977619024,0.0,0.0,0.00593411945678,0.0,0.0,0.0
1007,7_104,7,104,0.0,0.0,-0.853004729353,0.521903182306,0.0,0.0,-0.0115191730632,0.0,0.0,0.0
1008,7_105,7,105,0.0,0.0,-0.853323382693,0.5213820140259999,0.0,0.0,-0.0116937059884,0.0,0.0,0.0
1009,7_106,7,106,0.0,0.0,-0.853596260693,0.520935143498,0.0,0.0,-0.036128315516300004,0.0,0.0,0.0
1010,7_107,7,107,0.0,0.0,-0.853732611941,0.52071165467,0.0,0.0,-0.0293215314335,0.0,0.0,0.0
1011,7_108,7,108,0.0,0.0,-0.853868904674,0.520488130153,0.0,0.0,-0.00837758040957,0.0,0.0,0.0
1012,7_109,7,109,0.0,0.0,-0.854232065826,0.519891890411,0.0,0.0,-0.041189770347099995,0.0,0.0,0.0
1013,7_110,7,110,0.0,0.0,-0.8545041634739999,0.519444544302,0.0,0.0,-0.061784655520599994,0.0,0.0,0.0
1014,7_111,7,111,0.0,0.0,-0.855002400666,0.51862403999,0.0,0.0,-0.0176278254451,0.0,0.0,0.0
1015,7_112,7,112,0.0,0.0,-0.855319050519,0.5181016520139999,0.0,0.0,-0.0134390352404,0.0,0.0,0.0
1016,7_113,7,113,0.0,0.0,-0.855319050519,0.5181016520139999,0.0,0.0,-0.00157079632679,0.0,0.0,0.0
1017,7_114,7,114,0.0,0.0,-0.855545033584,0.517728399366,0.0,0.0,-0.0176278254451,0.0,0.0,0.0
1018,7_115,7,115,0.0,0.0,-0.855951392604,0.517056296257,0.0,0.0,-0.022340214425499997,0.0,0.0,0.0
1019,7_116,7,116,0.0,0.0,-0.856041622915,0.516906896682,0.0,0.0,-0.0160570291183,0.0,0.0,0.0
1020,7_117,7,117,0.0,0.0,-0.856312157376,0.5164586035000001,0.0,0.0,-0.0169296937443,0.0,0.0,0.0
1021,7_118,7,118,0.0,0.0,-0.8563572236310001,0.5163838742010001,0.0,0.0,-0.000349065850399,0.0,0.0,0.0
1022,7_119,7,119,0.0,0.0,-0.856492383265,0.516159662711,0.0,0.0,-0.0151843644924,0.0,0.0,0.0
1023,7_120,7,120,0.0,0.0,-0.85689750991,0.515486816038,0.0,0.0,-0.041015237421900004,0.0,0.0,0.0
1024,7_121,7,121,0.0,0.0,-0.8570773965449999,0.515187670981,0.0,0.0,-0.024609142453099996,0.0,0.0,0.0
1025,7_122,7,122,0.0,0.0,-0.857436856497,0.514589192581,0.0,0.0,-0.0207694180987,0.0,0.0,0.0
1026,7_123,7,123,0.0,0.0,-0.857436856497,0.514589192581,0.0,0.0,0.017278759594700002,0.0,0.0,0.0
1027,7_124,7,124,0.0,0.0,-0.8575715462469999,0.514364698505,0.0,0.0,-0.0191986217719,0.0,0.0,0.0
1028,7_125,7,125,0.0,0.0,-0.857975262798,0.513691004814,0.0,0.0,-0.006981317007979999,0.0,0.0,0.0
1029,7_126,7,126,0.0,0.0,-0.857975262798,0.513691004814,0.0,0.0,-0.00994837673637,0.0,0.0,0.0
1030,7_127,7,127,0.0,0.0,-0.858244113158,0.5132416996220001,0.0,0.0,-0.0158824961931,0.0,0.0,0.0
1031,7_128,7,128,0.0,0.0,-0.858512728225,0.512792253721,0.0,0.0,-0.0010471975512,0.0,0.0,0.0
1032,8_0,8,0,0.0,0.0,-0.8587811079250001,0.512342667236,0.0,0.0,-0.0183259571459,0.0,0.0,0.0
1033,8_1,8,1,0.0,0.0,-0.858870515509,0.512192773854,0.0,0.0,-0.0160570291183,0.0,0.0,0.0
1034,8_2,8,2,0.0,0.0,-0.859183236004,0.511668024181,0.0,0.0,-0.0207694180987,0.0,0.0,0.0
1035,8_3,8,3,0.0,0.0,-0.85936178949,0.5113680814880001,0.0,0.0,-0.014137166941200001,0.0,0.0,0.0
1036,8_4,8,4,0.0,0.0,-0.859718582308,0.510768009211,0.0,0.0,-0.0280998009571,0.0,0.0,0.0
1037,8_5,8,5,0.0,0.0,-0.859807715048,0.510617952234,0.0,0.0,-0.00855211333477,0.0,0.0,0.0
1038,8_6,8,6,0.0,0.0,-0.860030432306,0.510242741749,0.0,0.0,-0.022340214425499997,0.0,0.0,0.0
1039,8_7,8,7,0.0,0.0,-0.8603419613779999,0.509717283887,0.0,0.0,-0.0204203522483,0.0,0.0,0.0
1040,8_8,8,8,0.0,0.0,-0.860430910722,0.509567118125,0.0,0.0,-0.0160570291183,0.0,0.0,0.0
1041,8_9,8,9,0.0,0.0,-0.8606087307770001,0.509266740039,0.0,0.0,-0.000174532925199,0.0,0.0,0.0
1042,8_10,8,10,0.0,0.0,-0.860564285593,0.509341840379,0.0,0.0,0.011868238913600001,0.0,0.0,0.0
1043,8_11,8,11,0.0,0.0,-0.860564285593,0.509341840379,0.0,0.0,-0.013962634016,0.0,0.0,0.0
1044,8_12,8,12,0.0,0.0,-0.8606976014830001,0.509116527724,0.0,0.0,-0.0286233997327,0.0,0.0,0.0
1045,8_13,8,13,0.0,0.0,-0.8609196635359999,0.508740929096,0.0,0.0,-0.00174532925199,0.0,0.0,0.0
1046,8_14,8,14,0.0,0.0,-0.8609640562790001,0.508665797746,0.0,0.0,-0.0165806278939,0.0,0.0,0.0
1047,8_15,8,15,0.0,0.0,-0.861363295878,0.507989441341,0.0,0.0,-0.0345575191895,0.0,0.0,0.0
1048,8_16,8,16,0.0,0.0,-0.861673448238,0.507463169699,0.0,0.0,-0.014660765716799999,0.0,0.0,0.0
1049,8_17,8,17,0.0,0.0,-0.8617620041449999,0.507312771584,0.0,0.0,-0.0127409035396,0.0,0.0,0.0
1050,8_18,8,18,0.0,0.0,-0.8617177294730001,0.507387972573,0.0,0.0,-0.0050614548307799994,0.0,0.0,0.0
1051,8_19,8,19,0.0,0.0,-0.8617620041449999,0.507312771584,0.0,0.0,-0.00820304748437,0.0,0.0,0.0
1052,8_20,8,20,0.0,0.0,-0.862071743077,0.5067862565110001,0.0,0.0,-0.0328121899375,0.0,0.0,0.0
1053,8_21,8,21,0.0,0.0,-0.8623811603210001,0.506259552328,0.0,0.0,-0.035081117965099995,0.0,0.0,0.0
1054,8_22,8,22,0.0,0.0,-0.862469506147,0.506109030711,0.0,0.0,-0.0013962634016,0.0,0.0,0.0
1055,8_23,8,23,0.0,0.0,-0.8623811603210001,0.506259552328,0.0,0.0,0.022165681500300002,0.0,0.0,0.0
1056,8_24,8,24,0.0,0.0,-0.862115965238,0.50671102463,0.0,0.0,-0.043982297150300005,0.0,0.0,0.0
1057,8_25,8,25,0.0,0.0,-0.863087191148,0.505054947977,0.0,0.0,-0.07120943348139999,0.0,0.0,0.0
1058,8_26,8,26,0.0,0.0,-0.863791539342,0.503849358996,0.0,0.0,-0.0020943951023900003,0.0,0.0,0.0
1059,8_27,8,27,0.0,0.0,-0.863659602288,0.504075481823,0.0,0.0,0.012042771838799999,0.0,0.0,0.0
1060,8_28,8,28,0.0,0.0,-0.8641430820229999,0.503246196003,0.0,0.0,-0.0687659725286,0.0,0.0,0.0
1061,8_29,8,29,0.0,0.0,-0.8646257654780001,0.5024164464590001,0.0,0.0,-0.015358897417600001,0.0,0.0,0.0
1062,8_30,8,30,0.0,0.0,-0.864581918079,0.502491897378,0.0,0.0,0.0101229096616,0.0,0.0,0.0
1063,8_31,8,31,0.0,0.0,-0.8646257654780001,0.5024164464590001,0.0,0.0,-0.027925268031900003,0.0,0.0,0.0
1064,8_32,8,32,0.0,0.0,-0.8649763075929999,0.501812701416,0.0,0.0,-0.0160570291183,0.0,0.0,0.0
1065,8_33,8,33,0.0,0.0,-0.865020095719,0.501737216083,0.0,0.0,-0.00994837673637,0.0,0.0,0.0
1066,8_34,8,34,0.0,0.0,-0.8650638772570001,0.501661726928,0.0,0.0,-0.0176278254451,0.0,0.0,0.0
1067,8_35,8,35,0.0,0.0,-0.8656761269169999,0.500604477892,0.0,0.0,-0.0387463093943,0.0,0.0,0.0
1068,8_36,8,36,0.0,0.0,-0.865719809603,0.500528931493,0.0,0.0,-0.0033161255787899995,0.0,0.0,0.0
1069,8_37,8,37,0.0,0.0,-0.865632437639,0.500680020479,0.0,0.0,0.0101229096616,0.0,0.0,0.0
1070,8_38,8,38,0.0,0.0,-0.865632437639,0.500680020479,0.0,0.0,0.00157079632679,0.0,0.0,0.0
1071,8_39,8,39,0.0,0.0,-0.8659817672560001,0.50007557307,0.0,0.0,-0.030892327760299997,0.0,0.0,0.0
1072,8_40,8,40,0.0,0.0,-0.8661126570559999,0.499848842438,0.0,0.0,-0.0280998009571,0.0,0.0,0.0
1073,8_41,8,41,0.0,0.0,-0.8661126570559999,0.499848842438,0.0,0.0,0.023561944901900004,0.0,0.0,0.0
1074,8_42,8,42,0.0,0.0,-0.866025403784,0.5,0.0,0.0,0.0129154364648,0.0,0.0,0.0
1075,8_43,8,43,0.0,0.0,-0.866156273799,0.49977325794699995,0.0,0.0,-0.0181514242207,0.0,0.0,0.0
1076,8_44,8,44,0.0,0.0,-0.866679160112,0.498865947353,0.0,0.0,-0.0197222205475,0.0,0.0,0.0
1077,8_45,8,45,0.0,0.0,-0.866679160112,0.498865947353,0.0,0.0,0.000349065850399,0.0,0.0,0.0
1078,8_46,8,46,0.0,0.0,-0.866679160112,0.498865947353,0.0,0.0,0.0129154364648,0.0,0.0,0.0
1079,8_47,8,47,0.0,0.0,-0.866679160112,0.498865947353,0.0,0.0,-0.00523598775598,0.0,0.0,0.0
1080,8_48,8,48,0.0,0.0,-0.867244547743,0.49788241022299995,0.0,0.0,-0.0431096325243,0.0,0.0,0.0
1081,8_49,8,49,0.0,0.0,-0.867461707365,0.49750395601999997,0.0,0.0,-0.005759586531579999,0.0,0.0,0.0
1082,8_50,8,50,0.0,0.0,-0.867548524973,0.497352547815,0.0,0.0,-0.006632251157579999,0.0,0.0,0.0
1083,8_51,8,51,0.0,0.0,-0.8677654533689999,0.49697396102799996,0.0,0.0,-0.021816615649900003,0.0,0.0,0.0
1084,8_52,8,52,0.0,0.0,-0.868155508124,0.49629226642499996,0.0,0.0,-0.00820304748437,0.0,0.0,0.0
1085,8_53,8,53,0.0,0.0,-0.868155508124,0.49629226642499996,0.0,0.0,-0.00820304748437,0.0,0.0,0.0
1086,8_54,8,54,0.0,0.0,-0.8685017738959999,0.495686058649,0.0,0.0,-0.0274016692563,0.0,0.0,0.0
1087,8_55,8,55,0.0,0.0,-0.868804409216,0.495155428655,0.0,0.0,0.00314159265359,0.0,0.0,0.0
1088,8_56,8,56,0.0,0.0,-0.868761195445,0.495231244257,0.0,0.0,-0.0020943951023900003,0.0,0.0,0.0
1089,8_57,8,57,0.0,0.0,-0.869020378819,0.494776294095,0.0,0.0,-0.0212930168743,0.0,0.0,0.0
1090,8_58,8,58,0.0,0.0,-0.8693224582979999,0.494245347472,0.0,0.0,-0.0171042266695,0.0,0.0,0.0
1091,8_59,8,59,0.0,0.0,-0.8693224582979999,0.494245347472,0.0,0.0,0.00471238898038,0.0,0.0,0.0
1092,8_60,8,60,0.0,0.0,-0.869408707144,0.49409361455399997,0.0,0.0,-0.0111701072128,0.0,0.0,0.0
1093,8_61,8,61,0.0,0.0,-0.869710369526,0.49356243084299994,0.0,0.0,-0.020943951023900002,0.0,0.0,0.0
1094,8_62,8,62,0.0,0.0,-0.8699256439659999,0.493182901134,0.0,0.0,-0.015533430342700001,0.0,0.0,0.0
1095,8_63,8,63,0.0,0.0,-0.8699686789799999,0.49310698392200003,0.0,0.0,-0.0019198621771900001,0.0,0.0,0.0
1096,8_64,8,64,0.0,0.0,-0.8699256439659999,0.493182901134,0.0,0.0,-0.0034906585039899997,0.0,0.0,0.0
1097,8_65,8,65,0.0,0.0,-0.870226749928,0.492651401814,0.0,0.0,-0.03525565089030001,0.0,0.0,0.0
1098,8_66,8,66,0.0,0.0,-0.87035569594,0.49242356010300004,0.0,0.0,-0.021816615649900003,0.0,0.0,0.0
1099,8_67,8,67,0.0,0.0,-0.8704416268080001,0.492271646879,0.0,0.0,-0.00593411945678,0.0,0.0,0.0
1100,8_68,8,68,0.0,0.0,-0.870484582298,0.492195684643,0.0,0.0,-0.00820304748437,0.0,0.0,0.0
1101,8_69,8,69,0.0,0.0,-0.870699260309,0.49181581725,0.0,0.0,-0.00977384381117,0.0,0.0,0.0
1102,8_70,8,70,0.0,0.0,-0.8707850851000001,0.491663844071,0.0,0.0,-0.017278759594700002,0.0,0.0,0.0
1103,8_71,8,71,0.0,0.0,-0.870913772551,0.491435856222,0.0,0.0,-0.0012217304764,0.0,0.0,0.0
1104,8_72,8,72,0.0,0.0,-0.870913772551,0.491435856222,0.0,0.0,-0.0013962634016,0.0,0.0,0.0
1105,8_73,8,73,0.0,0.0,-0.870999531023,0.49128384561000005,0.0,0.0,-0.013788101090799998,0.0,0.0,0.0
1106,8_74,8,74,0.0,0.0,-0.871342299565,0.490675653552,0.0,0.0,-0.0268780704807,0.0,0.0,0.0
1107,8_75,8,75,0.0,0.0,-0.871556314255,0.490295412055,0.0,0.0,-0.012217304764,0.0,0.0,0.0
1108,8_76,8,76,0.0,0.0,-0.8716418736730001,0.490143289315,0.0,0.0,0.0216420827247,0.0,0.0,0.0
1109,8_77,8,77,0.0,0.0,-0.871684643425,0.490067222346,0.0,0.0,-0.0165806278939,0.0,0.0,0.0
1110,8_78,8,78,0.0,0.0,-0.8721119757870001,0.48930634748499996,0.0,0.0,-0.0338593874887,0.0,0.0,0.0
1111,8_79,8,79,0.0,0.0,-0.871983845799,0.48953464909500005,0.0,0.0,0.015533430342700001,0.0,0.0,0.0
1112,8_80,8,80,0.0,0.0,-0.872026562436,0.48945855228600005,0.0,0.0,0.009599310885969999,0.0,0.0,0.0
1113,8_81,8,81,0.0,0.0,-0.872026562436,0.48945855228600005,0.0,0.0,-0.0493928178314,0.0,0.0,0.0
1114,8_82,8,82,0.0,0.0,-0.872453363503,0.488697379276,0.0,0.0,-0.00733038285838,0.0,0.0,0.0
1115,8_83,8,83,0.0,0.0,-0.872197362572,0.489154127779,0.0,0.0,0.0312413936107,0.0,0.0,0.0
1116,8_84,8,84,0.0,0.0,-0.8723253929320001,0.48892577028300005,0.0,0.0,-0.036826447217099996,0.0,0.0,0.0
1117,8_85,8,85,0.0,0.0,-0.87241071329,0.48877351333400004,0.0,0.0,-0.014311699866400001,0.0,0.0,0.0
1118,8_86,8,86,0.0,0.0,-0.87241071329,0.48877351333400004,0.0,0.0,0.007679448708779999,0.0,0.0,0.0
1119,8_87,8,87,0.0,0.0,-0.872282722788,0.489001893172,0.0,0.0,-0.0144862327916,0.0,0.0,0.0
1120,8_88,8,88,0.0,0.0,-0.872368056432,0.48884964367,0.0,0.0,0.006981317007979999,0.0,0.0,0.0
1121,8_89,8,89,0.0,0.0,-0.87241071329,0.48877351333400004,0.0,0.0,0.00628318530718,0.0,0.0,0.0
1122,8_90,8,90,0.0,0.0,-0.87241071329,0.48877351333400004,0.0,0.0,-0.007679448708779999,0.0,0.0,0.0
