time,.header.seq,.header.stamp.secs,.header.stamp.nsecs,.header.frame_id,.orientation.x,.orientation.y,.orientation.z,.orientation.w,.orientation_covariance,.angular_velocity.x,.angular_velocity.y,.angular_velocity.z,.angular_velocity_covariance,.linear_acceleration.x,.linear_acceleration.y,.linear_acceleration.z,.linear_acceleration_covariance
2019/10/07/19:04:57.620824,0,1570442697,620444613,gyro_link,0.0,0.0,-0.864801089222,0.502114604528,"(1.7976931348623157e+308, 0.0, 0.0, 0.0, 1.7976931348623157e+308, 0.0, 0.0, 0.0, 0.05)",0.0,0.0,0.0,"(1.7976931348623157e+308, 0.0, 0.0, 0.0, 1.7976931348623157e+308, 0.0, 0.0, 0.0, 0.05)",0.0,0.0,0.0,"(0.0, 0.0, 0.0, 0.0, 0.0, 0.0, 0.0, 0.0, 0.0)"
2019/10/07/19:04:57.679452,1,1570442697,679042690,gyro_link,0.0,0.0,-0.864801089222,0.502114604528,"(1.7976931348623157e+308, 0.0, 0.0, 0.0, 1.7976931348623157e+308, 0.0, 0.0, 0.0, 0.05)",0.0,0.0,0.0,"(1.7976931348623157e+308, 0.0, 0.0, 0.0, 1.7976931348623157e+308, 0.0, 0.0, 0.0, 0.05)",0.0,0.0,0.0,"(0.0, 0.0, 0.0, 0.0, 0.0, 0.0, 0.0, 0.0, 0.0)"
2019/10/07/19:04:57.700642,2,1570442697,700229765,gyro_link,0.0,0.0,-0.864801089222,0.502114604528,"(1.7976931348623157e+308, 0.0, 0.0, 0.0, 1.7976931348623157e+308, 0.0, 0.0, 0.0, 0.05)",0.0,0.0,0.0,"(1.7976931348623157e+308, 0.0, 0.0, 0.0, 1.7976931348623157e+308, 0.0, 0.0, 0.0, 0.05)",0.0,0.0,0.0,"(0.0, 0.0, 0.0, 0.0, 0.0, 0.0, 0.0, 0.0, 0.0)"
2019/10/07/19:04:57.759430,3,1570442697,759171381,gyro_link,0.0,0.0,-0.864801089222,0.502114604528,"(1.7976931348623157e+308, 0.0, 0.0, 0.0, 1.7976931348623157e+308, 0.0, 0.0, 0.0, 0.05)",0.0,0.0,0.0,"(1.7976931348623157e+308, 0.0, 0.0, 0.0, 1.7976931348623157e+308, 0.0, 0.0, 0.0, 0.05)",0.0,0.0,0.0,"(0.0, 0.0, 0.0, 0.0, 0.0, 0.0, 0.0, 0.0, 0.0)"
2019/10/07/19:04:57.860070,4,1570442697,859768269,gyro_link,0.0,0.0,-0.864801089222,0.502114604528,"(1.7976931348623157e+308, 0.0, 0.0, 0.0, 1.7976931348623157e+308, 0.0, 0.0, 0.0, 0.05)",0.0,0.0,0.0,"(1.7976931348623157e+308, 0.0, 0.0, 0.0, 1.7976931348623157e+308, 0.0, 0.0, 0.0, 0.05)",0.0,0.0,0.0,"(0.0, 0.0, 0.0, 0.0, 0.0, 0.0, 0.0, 0.0, 0.0)"
2019/10/07/19:04:57.918500,5,1570442697,918314532,gyro_link,0.0,0.0,-0.864801089222,0.502114604528,"(1.7976931348623157e+308, 0.0, 0.0, 0.0, 1.7976931348623157e+308, 0.0, 0.0, 0.0, 0.05)",0.0,0.0,0.0,"(1.7976931348623157e+308, 0.0, 0.0, 0.0, 1.7976931348623157e+308, 0.0, 0.0, 0.0, 0.05)",0.0,0.0,0.0,"(0.0, 0.0, 0.0, 0.0, 0.0, 0.0, 0.0, 0.0, 0.0)"
2019/10/07/19:04:57.939211,6,1570442697,939011850,gyro_link,0.0,0.0,-0.864801089222,0.502114604528,"(1.7976931348623157e+308, 0.0, 0.0, 0.0, 1.7976931348623157e+308, 0.0, 0.0, 0.0, 0.05)",0.0,0.0,0.0,"(1.7976931348623157e+308, 0.0, 0.0, 0.0, 1.7976931348623157e+308, 0.0, 0.0, 0.0, 0.05)",0.0,0.0,0.0,"(0.0, 0.0, 0.0, 0.0, 0.0, 0.0, 0.0, 0.0, 0.0)"
2019/10/07/19:04:57.999167,7,1570442697,998514971,gyro_link,0.0,0.0,-0.864801089222,0.502114604528,"(1.7976931348623157e+308, 0.0, 0.0, 0.0, 1.7976931348623157e+308, 0.0, 0.0, 0.0, 0.05)",0.0,0.0,0.0,"(1.7976931348623157e+308, 0.0, 0.0, 0.0, 1.7976931348623157e+308, 0.0, 0.0, 0.0, 0.05)",0.0,0.0,0.0,"(0.0, 0.0, 0.0, 0.0, 0.0, 0.0, 0.0, 0.0, 0.0)"
2019/10/07/19:04:58.056995,8,1570442698,56326060,gyro_link,0.0,0.0,-0.864801089222,0.502114604528,"(1.7976931348623157e+308, 0.0, 0.0, 0.0, 1.7976931348623157e+308, 0.0, 0.0, 0.0, 0.05)",0.0,0.0,0.0,"(1.7976931348623157e+308, 0.0, 0.0, 0.0, 1.7976931348623157e+308, 0.0, 0.0, 0.0, 0.05)",0.0,0.0,0.0,"(0.0, 0.0, 0.0, 0.0, 0.0, 0.0, 0.0, 0.0, 0.0)"
2019/10/07/19:04:58.080037,9,1570442698,79400905,gyro_link,0.0,0.0,-0.864801089222,0.502114604528,"(1.7976931348623157e+308, 0.0, 0.0, 0.0, 1.7976931348623157e+308, 0.0, 0.0, 0.0, 0.05)",0.0,0.0,0.0,"(1.7976931348623157e+308, 0.0, 0.0, 0.0, 1.7976931348623157e+308, 0.0, 0.0, 0.0, 0.05)",0.0,0.0,0.0,"(0.0, 0.0, 0.0, 0.0, 0.0, 0.0, 0.0, 0.0, 0.0)"
2019/10/07/19:04:58.138808,10,1570442698,138310971,gyro_link,0.0,0.0,-0.864801089222,0.502114604528,"(1.7976931348623157e+308, 0.0, 0.0, 0.0, 1.7976931348623157e+308, 0.0, 0.0, 0.0, 0.05)",0.0,0.0,0.0,"(1.7976931348623157e+308, 0.0, 0.0, 0.0, 1.7976931348623157e+308, 0.0, 0.0, 0.0, 0.05)",0.0,0.0,0.0,"(0.0, 0.0, 0.0, 0.0, 0.0, 0.0, 0.0, 0.0, 0.0)"
2019/10/07/19:04:58.196492,11,1570442698,196065226,gyro_link,0.0,0.0,-0.864801089222,0.502114604528,"(1.7976931348623157e+308, 0.0, 0.0, 0.0, 1.7976931348623157e+308, 0.0, 0.0, 0.0, 0.05)",0.0,0.0,0.0,"(1.7976931348623157e+308, 0.0, 0.0, 0.0, 1.7976931348623157e+308, 0.0, 0.0, 0.0, 0.05)",0.0,0.0,0.0,"(0.0, 0.0, 0.0, 0.0, 0.0, 0.0, 0.0, 0.0, 0.0)"
2019/10/07/19:04:58.218812,12,1570442698,218153669,gyro_link,0.0,0.0,-0.864801089222,0.502114604528,"(1.7976931348623157e+308, 0.0, 0.0, 0.0, 1.7976931348623157e+308, 0.0, 0.0, 0.0, 0.05)",0.0,0.0,0.0,"(1.7976931348623157e+308, 0.0, 0.0, 0.0, 1.7976931348623157e+308, 0.0, 0.0, 0.0, 0.05)",0.0,0.0,0.0,"(0.0, 0.0, 0.0, 0.0, 0.0, 0.0, 0.0, 0.0, 0.0)"
2019/10/07/19:04:58.278807,13,1570442698,278146812,gyro_link,0.0,0.0,-0.864801089222,0.502114604528,"(1.7976931348623157e+308, 0.0, 0.0, 0.0, 1.7976931348623157e+308, 0.0, 0.0, 0.0, 0.05)",0.0,0.0,0.0,"(1.7976931348623157e+308, 0.0, 0.0, 0.0, 1.7976931348623157e+308, 0.0, 0.0, 0.0, 0.05)",0.0,0.0,0.0,"(0.0, 0.0, 0.0, 0.0, 0.0, 0.0, 0.0, 0.0, 0.0)"
2019/10/07/19:04:58.336261,14,1570442698,335689847,gyro_link,0.0,0.0,-0.864801089222,0.502114604528,"(1.7976931348623157e+308, 0.0, 0.0, 0.0, 1.7976931348623157e+308, 0.0, 0.0, 0.0, 0.05)",0.0,0.0,0.0,"(1.7976931348623157e+308, 0.0, 0.0, 0.0, 1.7976931348623157e+308, 0.0, 0.0, 0.0, 0.05)",0.0,0.0,0.0,"(0.0, 0.0, 0.0, 0.0, 0.0, 0.0, 0.0, 0.0, 0.0)"
2019/10/07/19:04:58.358119,15,1570442698,357727348,gyro_link,0.0,0.0,-0.864801089222,0.502114604528,"(1.7976931348623157e+308, 0.0, 0.0, 0.0, 1.7976931348623157e+308, 0.0, 0.0, 0.0, 0.05)",0.0,0.0,0.0,"(1.7976931348623157e+308, 0.0, 0.0, 0.0, 1.7976931348623157e+308, 0.0, 0.0, 0.0, 0.05)",0.0,0.0,0.0,"(0.0, 0.0, 0.0, 0.0, 0.0, 0.0, 0.0, 0.0, 0.0)"
2019/10/07/19:04:58.415845,16,1570442698,415500129,gyro_link,0.0,0.0,-0.864801089222,0.502114604528,"(1.7976931348623157e+308, 0.0, 0.0, 0.0, 1.7976931348623157e+308, 0.0, 0.0, 0.0, 0.05)",0.0,0.0,0.0,"(1.7976931348623157e+308, 0.0, 0.0, 0.0, 1.7976931348623157e+308, 0.0, 0.0, 0.0, 0.05)",0.0,0.0,0.0,"(0.0, 0.0, 0.0, 0.0, 0.0, 0.0, 0.0, 0.0, 0.0)"
2019/10/07/19:04:58.438051,17,1570442698,437626134,gyro_link,0.0,0.0,-0.864801089222,0.502114604528,"(1.7976931348623157e+308, 0.0, 0.0, 0.0, 1.7976931348623157e+308, 0.0, 0.0, 0.0, 0.05)",0.0,0.0,0.0,"(1.7976931348623157e+308, 0.0, 0.0, 0.0, 1.7976931348623157e+308, 0.0, 0.0, 0.0, 0.05)",0.0,0.0,0.0,"(0.0, 0.0, 0.0, 0.0, 0.0, 0.0, 0.0, 0.0, 0.0)"
2019/10/07/19:04:58.498000,18,1570442698,497515645,gyro_link,0.0,0.0,-0.864801089222,0.502114604528,"(1.7976931348623157e+308, 0.0, 0.0, 0.0, 1.7976931348623157e+308, 0.0, 0.0, 0.0, 0.05)",0.0,0.0,0.0,"(1.7976931348623157e+308, 0.0, 0.0, 0.0, 1.7976931348623157e+308, 0.0, 0.0, 0.0, 0.05)",0.0,0.0,0.0,"(0.0, 0.0, 0.0, 0.0, 0.0, 0.0, 0.0, 0.0, 0.0)"
2019/10/07/19:04:58.555609,19,1570442698,555214742,gyro_link,0.0,0.0,-0.864801089222,0.502114604528,"(1.7976931348623157e+308, 0.0, 0.0, 0.0, 1.7976931348623157e+308, 0.0, 0.0, 0.0, 0.05)",0.0,0.0,0.0,"(1.7976931348623157e+308, 0.0, 0.0, 0.0, 1.7976931348623157e+308, 0.0, 0.0, 0.0, 0.05)",0.0,0.0,0.0,"(0.0, 0.0, 0.0, 0.0, 0.0, 0.0, 0.0, 0.0, 0.0)"
2019/10/07/19:04:58.577788,20,1570442698,577412834,gyro_link,0.0,0.0,-0.864801089222,0.502114604528,"(1.7976931348623157e+308, 0.0, 0.0, 0.0, 1.7976931348623157e+308, 0.0, 0.0, 0.0, 0.05)",0.0,0.0,0.0,"(1.7976931348623157e+308, 0.0, 0.0, 0.0, 1.7976931348623157e+308, 0.0, 0.0, 0.0, 0.05)",0.0,0.0,0.0,"(0.0, 0.0, 0.0, 0.0, 0.0, 0.0, 0.0, 0.0, 0.0)"
2019/10/07/19:04:58.637825,21,1570442698,637352448,gyro_link,0.0,0.0,-0.864801089222,0.502114604528,"(1.7976931348623157e+308, 0.0, 0.0, 0.0, 1.7976931348623157e+308, 0.0, 0.0, 0.0, 0.05)",0.0,0.0,0.0,"(1.7976931348623157e+308, 0.0, 0.0, 0.0, 1.7976931348623157e+308, 0.0, 0.0, 0.0, 0.05)",0.0,0.0,0.0,"(0.0, 0.0, 0.0, 0.0, 0.0, 0.0, 0.0, 0.0, 0.0)"
2019/10/07/19:04:58.697786,22,1570442698,697236994,gyro_link,0.0,0.0,-0.864801089222,0.502114604528,"(1.7976931348623157e+308, 0.0, 0.0, 0.0, 1.7976931348623157e+308, 0.0, 0.0, 0.0, 0.05)",0.0,0.0,0.0,"(1.7976931348623157e+308, 0.0, 0.0, 0.0, 1.7976931348623157e+308, 0.0, 0.0, 0.0, 0.05)",0.0,0.0,0.0,"(0.0, 0.0, 0.0, 0.0, 0.0, 0.0, 0.0, 0.0, 0.0)"
2019/10/07/19:04:58.757522,23,1570442698,757153116,gyro_link,0.0,0.0,-0.864801089222,0.502114604528,"(1.7976931348623157e+308, 0.0, 0.0, 0.0, 1.7976931348623157e+308, 0.0, 0.0, 0.0, 0.05)",0.0,0.0,0.0,"(1.7976931348623157e+308, 0.0, 0.0, 0.0, 1.7976931348623157e+308, 0.0, 0.0, 0.0, 0.05)",0.0,0.0,0.0,"(0.0, 0.0, 0.0, 0.0, 0.0, 0.0, 0.0, 0.0, 0.0)"
2019/10/07/19:04:58.817484,24,1570442698,816881278,gyro_link,0.0,0.0,-0.864801089222,0.502114604528,"(1.7976931348623157e+308, 0.0, 0.0, 0.0, 1.7976931348623157e+308, 0.0, 0.0, 0.0, 0.05)",0.0,0.0,0.0,"(1.7976931348623157e+308, 0.0, 0.0, 0.0, 1.7976931348623157e+308, 0.0, 0.0, 0.0, 0.05)",0.0,0.0,0.0,"(0.0, 0.0, 0.0, 0.0, 0.0, 0.0, 0.0, 0.0, 0.0)"
2019/10/07/19:04:58.877274,25,1570442698,876821910,gyro_link,0.0,0.0,-0.864801089222,0.502114604528,"(1.7976931348623157e+308, 0.0, 0.0, 0.0, 1.7976931348623157e+308, 0.0, 0.0, 0.0, 0.05)",0.0,0.0,0.0,"(1.7976931348623157e+308, 0.0, 0.0, 0.0, 1.7976931348623157e+308, 0.0, 0.0, 0.0, 0.05)",0.0,0.0,0.0,"(0.0, 0.0, 0.0, 0.0, 0.0, 0.0, 0.0, 0.0, 0.0)"
2019/10/07/19:04:58.937084,26,1570442698,936605796,gyro_link,0.0,0.0,-0.864801089222,0.502114604528,"(1.7976931348623157e+308, 0.0, 0.0, 0.0, 1.7976931348623157e+308, 0.0, 0.0, 0.0, 0.05)",0.0,0.0,0.000523598775598,"(1.7976931348623157e+308, 0.0, 0.0, 0.0, 1.7976931348623157e+308, 0.0, 0.0, 0.0, 0.05)",0.0,0.0,0.0,"(0.0, 0.0, 0.0, 0.0, 0.0, 0.0, 0.0, 0.0, 0.0)"
2019/10/07/19:04:58.997135,27,1570442698,996559090,gyro_link,0.0,0.0,-0.864801089222,0.502114604528,"(1.7976931348623157e+308, 0.0, 0.0, 0.0, 1.7976931348623157e+308, 0.0, 0.0, 0.0, 0.05)",0.0,0.0,-0.0010471975512,"(1.7976931348623157e+308, 0.0, 0.0, 0.0, 1.7976931348623157e+308, 0.0, 0.0, 0.0, 0.05)",0.0,0.0,0.0,"(0.0, 0.0, 0.0, 0.0, 0.0, 0.0, 0.0, 0.0, 0.0)"
2019/10/07/19:04:59.055911,28,1570442699,55333711,gyro_link,0.0,0.0,-0.864801089222,0.502114604528,"(1.7976931348623157e+308, 0.0, 0.0, 0.0, 1.7976931348623157e+308, 0.0, 0.0, 0.0, 0.05)",0.0,0.0,0.0013962634016,"(1.7976931348623157e+308, 0.0, 0.0, 0.0, 1.7976931348623157e+308, 0.0, 0.0, 0.0, 0.05)",0.0,0.0,0.0,"(0.0, 0.0, 0.0, 0.0, 0.0, 0.0, 0.0, 0.0, 0.0)"
2019/10/07/19:04:59.113936,29,1570442699,113380320,gyro_link,0.0,0.0,-0.865501330253,0.500906625361,"(1.7976931348623157e+308, 0.0, 0.0, 0.0, 1.7976931348623157e+308, 0.0, 0.0, 0.0, 0.05)",0.0,0.0,-0.0706858347058,"(1.7976931348623157e+308, 0.0, 0.0, 0.0, 1.7976931348623157e+308, 0.0, 0.0, 0.0, 0.05)",0.0,0.0,0.0,"(0.0, 0.0, 0.0, 0.0, 0.0, 0.0, 0.0, 0.0, 0.0)"
2019/10/07/19:04:59.136567,30,1570442699,136226651,gyro_link,0.0,0.0,-0.865676126917,0.500604477892,"(1.7976931348623157e+308, 0.0, 0.0, 0.0, 1.7976931348623157e+308, 0.0, 0.0, 0.0, 0.05)",0.0,0.0,-0.0307177948351,"(1.7976931348623157e+308, 0.0, 0.0, 0.0, 1.7976931348623157e+308, 0.0, 0.0, 0.0, 0.05)",0.0,0.0,0.0,"(0.0, 0.0, 0.0, 0.0, 0.0, 0.0, 0.0, 0.0, 0.0)"
2019/10/07/19:04:59.195733,31,1570442699,195257705,gyro_link,0.0,0.0,-0.865501330253,0.500906625361,"(1.7976931348623157e+308, 0.0, 0.0, 0.0, 1.7976931348623157e+308, 0.0, 0.0, 0.0, 0.05)",0.0,0.0,-0.0150098315672,"(1.7976931348623157e+308, 0.0, 0.0, 0.0, 1.7976931348623157e+308, 0.0, 0.0, 0.0, 0.05)",0.0,0.0,0.0,"(0.0, 0.0, 0.0, 0.0, 0.0, 0.0, 0.0, 0.0, 0.0)"
2019/10/07/19:04:59.253677,32,1570442699,253093950,gyro_link,0.0,0.0,-0.866243487495,0.499622077548,"(1.7976931348623157e+308, 0.0, 0.0, 0.0, 1.7976931348623157e+308, 0.0, 0.0, 0.0, 0.05)",0.0,0.0,-0.0151843644924,"(1.7976931348623157e+308, 0.0, 0.0, 0.0, 1.7976931348623157e+308, 0.0, 0.0, 0.0, 0.05)",0.0,0.0,0.0,"(0.0, 0.0, 0.0, 0.0, 0.0, 0.0, 0.0, 0.0, 0.0)"
2019/10/07/19:04:59.277034,33,1570442699,276306690,gyro_link,0.0,0.0,-0.866199883945,0.49969766965,"(1.7976931348623157e+308, 0.0, 0.0, 0.0, 1.7976931348623157e+308, 0.0, 0.0, 0.0, 0.05)",0.0,0.0,0.0101229096616,"(1.7976931348623157e+308, 0.0, 0.0, 0.0, 1.7976931348623157e+308, 0.0, 0.0, 0.0, 0.05)",0.0,0.0,0.0,"(0.0, 0.0, 0.0, 0.0, 0.0, 0.0, 0.0, 0.0, 0.0)"
2019/10/07/19:04:59.335966,34,1570442699,335369381,gyro_link,0.0,0.0,-0.866199883945,0.49969766965,"(1.7976931348623157e+308, 0.0, 0.0, 0.0, 1.7976931348623157e+308, 0.0, 0.0, 0.0, 0.05)",0.0,0.0,-0.0109955742876,"(1.7976931348623157e+308, 0.0, 0.0, 0.0, 1.7976931348623157e+308, 0.0, 0.0, 0.0, 0.05)",0.0,0.0,0.0,"(0.0, 0.0, 0.0, 0.0, 0.0, 0.0, 0.0, 0.0, 0.0)"
2019/10/07/19:04:59.393777,35,1570442699,393139049,gyro_link,0.0,0.0,-0.866243487495,0.499622077548,"(1.7976931348623157e+308, 0.0, 0.0, 0.0, 1.7976931348623157e+308, 0.0, 0.0, 0.0, 0.05)",0.0,0.0,-0.00436332312999,"(1.7976931348623157e+308, 0.0, 0.0, 0.0, 1.7976931348623157e+308, 0.0, 0.0, 0.0, 0.05)",0.0,0.0,0.0,"(0.0, 0.0, 0.0, 0.0, 0.0, 0.0, 0.0, 0.0, 0.0)"
2019/10/07/19:04:59.415775,36,1570442699,415283903,gyro_link,0.0,0.0,-0.866287084447,0.499546481641,"(1.7976931348623157e+308, 0.0, 0.0, 0.0, 1.7976931348623157e+308, 0.0, 0.0, 0.0, 0.05)",0.0,0.0,-0.0116937059884,"(1.7976931348623157e+308, 0.0, 0.0, 0.0, 1.7976931348623157e+308, 0.0, 0.0, 0.0, 0.05)",0.0,0.0,0.0,"(0.0, 0.0, 0.0, 0.0, 0.0, 0.0, 0.0, 0.0, 0.0)"
2019/10/07/19:04:59.473502,37,1570442699,472885370,gyro_link,0.0,0.0,-0.866722691078,0.498790313429,"(1.7976931348623157e+308, 0.0, 0.0, 0.0, 1.7976931348623157e+308, 0.0, 0.0, 0.0, 0.05)",0.0,0.0,-0.0336848545635,"(1.7976931348623157e+308, 0.0, 0.0, 0.0, 1.7976931348623157e+308, 0.0, 0.0, 0.0, 0.05)",0.0,0.0,0.0,"(0.0, 0.0, 0.0, 0.0, 0.0, 0.0, 0.0, 0.0, 0.0)"
2019/10/07/19:04:59.495534,38,1570442699,495016731,gyro_link,0.0,0.0,-0.866853244373,0.498563388868,"(1.7976931348623157e+308, 0.0, 0.0, 0.0, 1.7976931348623157e+308, 0.0, 0.0, 0.0, 0.05)",0.0,0.0,-0.0251327412287,"(1.7976931348623157e+308, 0.0, 0.0, 0.0, 1.7976931348623157e+308, 0.0, 0.0, 0.0, 0.05)",0.0,0.0,0.0,"(0.0, 0.0, 0.0, 0.0, 0.0, 0.0, 0.0, 0.0, 0.0)"
2019/10/07/19:04:59.555823,39,1570442699,555305421,gyro_link,0.0,0.0,-0.867027223011,0.498260769635,"(1.7976931348623157e+308, 0.0, 0.0, 0.0, 1.7976931348623157e+308, 0.0, 0.0, 0.0, 0.05)",0.0,0.0,0.00157079632679,"(1.7976931348623157e+308, 0.0, 0.0, 0.0, 1.7976931348623157e+308, 0.0, 0.0, 0.0, 0.05)",0.0,0.0,0.0,"(0.0, 0.0, 0.0, 0.0, 0.0, 0.0, 0.0, 0.0, 0.0)"
2019/10/07/19:04:59.613082,40,1570442699,612548402,gyro_link,0.0,0.0,-0.866853244373,0.498563388868,"(1.7976931348623157e+308, 0.0, 0.0, 0.0, 1.7976931348623157e+308, 0.0, 0.0, 0.0, 0.05)",0.0,0.0,-0.0108210413624,"(1.7976931348623157e+308, 0.0, 0.0, 0.0, 1.7976931348623157e+308, 0.0, 0.0, 0.0, 0.05)",0.0,0.0,0.0,"(0.0, 0.0, 0.0, 0.0, 0.0, 0.0, 0.0, 0.0, 0.0)"
2019/10/07/19:04:59.635026,41,1570442699,634369166,gyro_link,0.0,0.0,-0.866896748936,0.498487739754,"(1.7976931348623157e+308, 0.0, 0.0, 0.0, 1.7976931348623157e+308, 0.0, 0.0, 0.0, 0.05)",0.0,0.0,-0.0125663706144,"(1.7976931348623157e+308, 0.0, 0.0, 0.0, 1.7976931348623157e+308, 0.0, 0.0, 0.0, 0.05)",0.0,0.0,0.0,"(0.0, 0.0, 0.0, 0.0, 0.0, 0.0, 0.0, 0.0, 0.0)"
2019/10/07/19:04:59.695069,42,1570442699,694624793,gyro_link,0.0,0.0,-0.867201096005,0.497958089691,"(1.7976931348623157e+308, 0.0, 0.0, 0.0, 1.7976931348623157e+308, 0.0, 0.0, 0.0, 0.05)",0.0,0.0,-0.0106465084372,"(1.7976931348623157e+308, 0.0, 0.0, 0.0, 1.7976931348623157e+308, 0.0, 0.0, 0.0, 0.05)",0.0,0.0,0.0,"(0.0, 0.0, 0.0, 0.0, 0.0, 0.0, 0.0, 0.0, 0.0)"
2019/10/07/19:04:59.755172,43,1570442699,754725554,gyro_link,0.0,0.0,-0.867331431408,0.497731039913,"(1.7976931348623157e+308, 0.0, 0.0, 0.0, 1.7976931348623157e+308, 0.0, 0.0, 0.0, 0.05)",0.0,0.0,-0.0146607657168,"(1.7976931348623157e+308, 0.0, 0.0, 0.0, 1.7976931348623157e+308, 0.0, 0.0, 0.0, 0.05)",0.0,0.0,0.0,"(0.0, 0.0, 0.0, 0.0, 0.0, 0.0, 0.0, 0.0, 0.0)"
2019/10/07/19:04:59.814065,44,1570442699,813771623,gyro_link,0.0,0.0,-0.867591923867,0.49727683803,"(1.7976931348623157e+308, 0.0, 0.0, 0.0, 1.7976931348623157e+308, 0.0, 0.0, 0.0, 0.05)",0.0,0.0,0.00226892802759,"(1.7976931348623157e+308, 0.0, 0.0, 0.0, 1.7976931348623157e+308, 0.0, 0.0, 0.0, 0.05)",0.0,0.0,0.0,"(0.0, 0.0, 0.0, 0.0, 0.0, 0.0, 0.0, 0.0, 0.0)"
2019/10/07/19:04:59.874573,45,1570442699,873989735,gyro_link,0.0,0.0,-0.867548524973,0.497352547815,"(1.7976931348623157e+308, 0.0, 0.0, 0.0, 1.7976931348623157e+308, 0.0, 0.0, 0.0, 0.05)",0.0,0.0,-0.00506145483078,"(1.7976931348623157e+308, 0.0, 0.0, 0.0, 1.7976931348623157e+308, 0.0, 0.0, 0.0, 0.05)",0.0,0.0,0.0,"(0.0, 0.0, 0.0, 0.0, 0.0, 0.0, 0.0, 0.0, 0.0)"
2019/10/07/19:04:59.934544,46,1570442699,933944982,gyro_link,0.0,0.0,-0.867852178471,0.496822499816,"(1.7976931348623157e+308, 0.0, 0.0, 0.0, 1.7976931348623157e+308, 0.0, 0.0, 0.0, 0.05)",0.0,0.0,-0.0141371669412,"(1.7976931348623157e+308, 0.0, 0.0, 0.0, 1.7976931348623157e+308, 0.0, 0.0, 0.0, 0.05)",0.0,0.0,0.0,"(0.0, 0.0, 0.0, 0.0, 0.0, 0.0, 0.0, 0.0, 0.0)"
2019/10/07/19:04:59.994328,47,1570442699,993831362,gyro_link,0.0,0.0,-0.867982216555,0.496595279624,"(1.7976931348623157e+308, 0.0, 0.0, 0.0, 1.7976931348623157e+308, 0.0, 0.0, 0.0, 0.05)",0.0,0.0,-0.0116937059884,"(1.7976931348623157e+308, 0.0, 0.0, 0.0, 1.7976931348623157e+308, 0.0, 0.0, 0.0, 0.05)",0.0,0.0,0.0,"(0.0, 0.0, 0.0, 0.0, 0.0, 0.0, 0.0, 0.0, 0.0)"
2019/10/07/19:05:00.054222,48,1570442700,53679971,gyro_link,0.0,0.0,-0.868328693912,0.495989192755,"(1.7976931348623157e+308, 0.0, 0.0, 0.0, 1.7976931348623157e+308, 0.0, 0.0, 0.0, 0.05)",0.0,0.0,-0.0179768912955,"(1.7976931348623157e+308, 0.0, 0.0, 0.0, 1.7976931348623157e+308, 0.0, 0.0, 0.0, 0.05)",0.0,0.0,0.0,"(0.0, 0.0, 0.0, 0.0, 0.0, 0.0, 0.0, 0.0, 0.0)"
2019/10/07/19:05:00.114201,49,1570442700,113600512,gyro_link,0.0,0.0,-0.868198814489,0.496216503675,"(1.7976931348623157e+308, 0.0, 0.0, 0.0, 1.7976931348623157e+308, 0.0, 0.0, 0.0, 0.05)",0.0,0.0,0.00942477796077,"(1.7976931348623157e+308, 0.0, 0.0, 0.0, 1.7976931348623157e+308, 0.0, 0.0, 0.0, 0.05)",0.0,0.0,0.0,"(0.0, 0.0, 0.0, 0.0, 0.0, 0.0, 0.0, 0.0, 0.0)"
2019/10/07/19:05:00.174209,50,1570442700,173501183,gyro_link,0.0,0.0,-0.868501773896,0.495686058649,"(1.7976931348623157e+308, 0.0, 0.0, 0.0, 1.7976931348623157e+308, 0.0, 0.0, 0.0, 0.05)",0.0,0.0,-0.0326376570123,"(1.7976931348623157e+308, 0.0, 0.0, 0.0, 1.7976931348623157e+308, 0.0, 0.0, 0.0, 0.05)",0.0,0.0,0.0,"(0.0, 0.0, 0.0, 0.0, 0.0, 0.0, 0.0, 0.0, 0.0)"
2019/10/07/19:05:00.234053,51,1570442700,233438344,gyro_link,0.0,0.0,-0.868588274205,0.495534468945,"(1.7976931348623157e+308, 0.0, 0.0, 0.0, 1.7976931348623157e+308, 0.0, 0.0, 0.0, 0.05)",0.0,0.0,0.00191986217719,"(1.7976931348623157e+308, 0.0, 0.0, 0.0, 1.7976931348623157e+308, 0.0, 0.0, 0.0, 0.05)",0.0,0.0,0.0,"(0.0, 0.0, 0.0, 0.0, 0.0, 0.0, 0.0, 0.0, 0.0)"
2019/10/07/19:05:00.291948,52,1570442700,291453685,gyro_link,0.0,0.0,-0.868890816908,0.495003786139,"(1.7976931348623157e+308, 0.0, 0.0, 0.0, 1.7976931348623157e+308, 0.0, 0.0, 0.0, 0.05)",0.0,0.0,-0.0356047167407,"(1.7976931348623157e+308, 0.0, 0.0, 0.0, 1.7976931348623157e+308, 0.0, 0.0, 0.0, 0.05)",0.0,0.0,0.0,"(0.0, 0.0, 0.0, 0.0, 0.0, 0.0, 0.0, 0.0, 0.0)"
2019/10/07/19:05:00.313700,53,1570442700,313333966,gyro_link,0.0,0.0,-0.869020378819,0.494776294095,"(1.7976931348623157e+308, 0.0, 0.0, 0.0, 1.7976931348623157e+308, 0.0, 0.0, 0.0, 0.05)",0.0,0.0,-0.0134390352404,"(1.7976931348623157e+308, 0.0, 0.0, 0.0, 1.7976931348623157e+308, 0.0, 0.0, 0.0, 0.05)",0.0,0.0,0.0,"(0.0, 0.0, 0.0, 0.0, 0.0, 0.0, 0.0, 0.0, 0.0)"
2019/10/07/19:05:00.373692,54,1570442700,372974255,gyro_link,0.0,0.0,-0.868890816908,0.495003786139,"(1.7976931348623157e+308, 0.0, 0.0, 0.0, 1.7976931348623157e+308, 0.0, 0.0, 0.0, 0.05)",0.0,0.0,0.00715584993318,"(1.7976931348623157e+308, 0.0, 0.0, 0.0, 1.7976931348623157e+308, 0.0, 0.0, 0.0, 0.05)",0.0,0.0,0.0,"(0.0, 0.0, 0.0, 0.0, 0.0, 0.0, 0.0, 0.0, 0.0)"
2019/10/07/19:05:00.433577,55,1570442700,433025736,gyro_link,0.0,0.0,-0.869106720336,0.494624613891,"(1.7976931348623157e+308, 0.0, 0.0, 0.0, 1.7976931348623157e+308, 0.0, 0.0, 0.0, 0.05)",0.0,0.0,-0.00628318530718,"(1.7976931348623157e+308, 0.0, 0.0, 0.0, 1.7976931348623157e+308, 0.0, 0.0, 0.0, 0.05)",0.0,0.0,0.0,"(0.0, 0.0, 0.0, 0.0, 0.0, 0.0, 0.0, 0.0, 0.0)"
2019/10/07/19:05:00.492475,56,1570442700,491986832,gyro_link,0.0,0.0,-0.869063552887,0.494700455876,"(1.7976931348623157e+308, 0.0, 0.0, 0.0, 1.7976931348623157e+308, 0.0, 0.0, 0.0, 0.05)",0.0,0.0,-0.014835298642,"(1.7976931348623157e+308, 0.0, 0.0, 0.0, 1.7976931348623157e+308, 0.0, 0.0, 0.0, 0.05)",0.0,0.0,0.0,"(0.0, 0.0, 0.0, 0.0, 0.0, 0.0, 0.0, 0.0, 0.0)"
2019/10/07/19:05:00.513458,57,1570442700,512879048,gyro_link,0.0,0.0,-0.869279323945,0.494321208286,"(1.7976931348623157e+308, 0.0, 0.0, 0.0, 1.7976931348623157e+308, 0.0, 0.0, 0.0, 0.05)",0.0,0.0,-0.0373500459927,"(1.7976931348623157e+308, 0.0, 0.0, 0.0, 1.7976931348623157e+308, 0.0, 0.0, 0.0, 0.05)",0.0,0.0,0.0,"(0.0, 0.0, 0.0, 0.0, 0.0, 0.0, 0.0, 0.0, 0.0)"
2019/10/07/19:05:00.572378,58,1570442700,571962813,gyro_link,0.0,0.0,-0.869624213385,0.493714216419,"(1.7976931348623157e+308, 0.0, 0.0, 0.0, 1.7976931348623157e+308, 0.0, 0.0, 0.0, 0.05)",0.0,0.0,0.00418879020479,"(1.7976931348623157e+308, 0.0, 0.0, 0.0, 1.7976931348623157e+308, 0.0, 0.0, 0.0, 0.05)",0.0,0.0,0.0,"(0.0, 0.0, 0.0, 0.0, 0.0, 0.0, 0.0, 0.0, 0.0)"
2019/10/07/19:05:00.629990,59,1570442700,629587118,gyro_link,0.0,0.0,-0.869538030754,0.493865986957,"(1.7976931348623157e+308, 0.0, 0.0, 0.0, 1.7976931348623157e+308, 0.0, 0.0, 0.0, 0.05)",0.0,0.0,-0.0195476876223,"(1.7976931348623157e+308, 0.0, 0.0, 0.0, 1.7976931348623157e+308, 0.0, 0.0, 0.0, 0.05)",0.0,0.0,0.0,"(0.0, 0.0, 0.0, 0.0, 0.0, 0.0, 0.0, 0.0, 0.0)"
2019/10/07/19:05:00.652094,60,1570442700,651487465,gyro_link,0.0,0.0,-0.869667294767,0.493638325511,"(1.7976931348623157e+308, 0.0, 0.0, 0.0, 1.7976931348623157e+308, 0.0, 0.0, 0.0, 0.05)",0.0,0.0,-0.0268780704807,"(1.7976931348623157e+308, 0.0, 0.0, 0.0, 1.7976931348623157e+308, 0.0, 0.0, 0.0, 0.05)",0.0,0.0,0.0,"(0.0, 0.0, 0.0, 0.0, 0.0, 0.0, 0.0, 0.0, 0.0)"
2019/10/07/19:05:00.710180,61,1570442700,709576801,gyro_link,0.0,0.0,-0.869753437661,0.493486532416,"(1.7976931348623157e+308, 0.0, 0.0, 0.0, 1.7976931348623157e+308, 0.0, 0.0, 0.0, 0.05)",0.0,0.0,0.00733038285838,"(1.7976931348623157e+308, 0.0, 0.0, 0.0, 1.7976931348623157e+308, 0.0, 0.0, 0.0, 0.05)",0.0,0.0,0.0,"(0.0, 0.0, 0.0, 0.0, 0.0, 0.0, 0.0, 0.0, 0.0)"
2019/10/07/19:05:00.731850,62,1570442700,731345348,gyro_link,0.0,0.0,-0.869753437661,0.493486532416,"(1.7976931348623157e+308, 0.0, 0.0, 0.0, 1.7976931348623157e+308, 0.0, 0.0, 0.0, 0.05)",0.0,0.0,-0.0010471975512,"(1.7976931348623157e+308, 0.0, 0.0, 0.0, 1.7976931348623157e+308, 0.0, 0.0, 0.0, 0.05)",0.0,0.0,0.0,"(0.0, 0.0, 0.0, 0.0, 0.0, 0.0, 0.0, 0.0, 0.0)"
2019/10/07/19:05:00.789793,63,1570442700,789356351,gyro_link,0.0,0.0,-0.870054729134,0.492955138234,"(1.7976931348623157e+308, 0.0, 0.0, 0.0, 1.7976931348623157e+308, 0.0, 0.0, 0.0, 0.05)",0.0,0.0,-0.0174532925199,"(1.7976931348623157e+308, 0.0, 0.0, 0.0, 1.7976931348623157e+308, 0.0, 0.0, 0.0, 0.05)",0.0,0.0,0.0,"(0.0, 0.0, 0.0, 0.0, 0.0, 0.0, 0.0, 0.0, 0.0)"
2019/10/07/19:05:00.811764,64,1570442700,811341654,gyro_link,0.0,0.0,-0.870054729134,0.492955138234,"(1.7976931348623157e+308, 0.0, 0.0, 0.0, 1.7976931348623157e+308, 0.0, 0.0, 0.0, 0.05)",0.0,0.0,-0.00209439510239,"(1.7976931348623157e+308, 0.0, 0.0, 0.0, 1.7976931348623157e+308, 0.0, 0.0, 0.0, 0.05)",0.0,0.0,0.0,"(0.0, 0.0, 0.0, 0.0, 0.0, 0.0, 0.0, 0.0, 0.0)"
2019/10/07/19:05:00.871909,65,1570442700,871224416,gyro_link,0.0,0.0,-0.87018375467,0.492727341548,"(1.7976931348623157e+308, 0.0, 0.0, 0.0, 1.7976931348623157e+308, 0.0, 0.0, 0.0, 0.05)",0.0,0.0,-0.0185004900711,"(1.7976931348623157e+308, 0.0, 0.0, 0.0, 1.7976931348623157e+308, 0.0, 0.0, 0.0, 0.05)",0.0,0.0,0.0,"(0.0, 0.0, 0.0, 0.0, 0.0, 0.0, 0.0, 0.0, 0.0)"
2019/10/07/19:05:00.929554,66,1570442700,929145576,gyro_link,0.0,0.0,-0.870312720564,0.492499511091,"(1.7976931348623157e+308, 0.0, 0.0, 0.0, 1.7976931348623157e+308, 0.0, 0.0, 0.0, 0.05)",0.0,0.0,0.00541052068118,"(1.7976931348623157e+308, 0.0, 0.0, 0.0, 1.7976931348623157e+308, 0.0, 0.0, 0.0, 0.05)",0.0,0.0,0.0,"(0.0, 0.0, 0.0, 0.0, 0.0, 0.0, 0.0, 0.0, 0.0)"
2019/10/07/19:05:00.951706,67,1570442700,951343081,gyro_link,0.0,0.0,-0.87026973856,0.492575458328,"(1.7976931348623157e+308, 0.0, 0.0, 0.0, 1.7976931348623157e+308, 0.0, 0.0, 0.0, 0.05)",0.0,0.0,0.0013962634016,"(1.7976931348623157e+308, 0.0, 0.0, 0.0, 1.7976931348623157e+308, 0.0, 0.0, 0.0, 0.05)",0.0,0.0,0.0,"(0.0, 0.0, 0.0, 0.0, 0.0, 0.0, 0.0, 0.0, 0.0)"
2019/10/07/19:05:01.009504,68,1570442701,9014384,gyro_link,0.0,0.0,-0.87052753116,0.492119718658,"(1.7976931348623157e+308, 0.0, 0.0, 0.0, 1.7976931348623157e+308, 0.0, 0.0, 0.0, 0.05)",0.0,0.0,-0.0251327412287,"(1.7976931348623157e+308, 0.0, 0.0, 0.0, 1.7976931348623157e+308, 0.0, 0.0, 0.0, 0.05)",0.0,0.0,0.0,"(0.0, 0.0, 0.0, 0.0, 0.0, 0.0, 0.0, 0.0, 0.0)"
2019/10/07/19:05:01.031782,69,1570442701,31441770,gyro_link,0.0,0.0,-0.870570473392,0.492043748926,"(1.7976931348623157e+308, 0.0, 0.0, 0.0, 1.7976931348623157e+308, 0.0, 0.0, 0.0, 0.05)",0.0,0.0,-0.00506145483078,"(1.7976931348623157e+308, 0.0, 0.0, 0.0, 1.7976931348623157e+308, 0.0, 0.0, 0.0, 0.05)",0.0,0.0,0.0,"(0.0, 0.0, 0.0, 0.0, 0.0, 0.0, 0.0, 0.0, 0.0)"
2019/10/07/19:05:01.091516,70,1570442701,90988984,gyro_link,0.0,0.0,-0.87052753116,0.492119718658,"(1.7976931348623157e+308, 0.0, 0.0, 0.0, 1.7976931348623157e+308, 0.0, 0.0, 0.0, 0.05)",0.0,0.0,-0.000872664625997,"(1.7976931348623157e+308, 0.0, 0.0, 0.0, 1.7976931348623157e+308, 0.0, 0.0, 0.0, 0.05)",0.0,0.0,0.0,"(0.0, 0.0, 0.0, 0.0, 0.0, 0.0, 0.0, 0.0, 0.0)"
2019/10/07/19:05:01.151327,71,1570442701,150933347,gyro_link,0.0,0.0,-0.870570473392,0.492043748926,"(1.7976931348623157e+308, 0.0, 0.0, 0.0, 1.7976931348623157e+308, 0.0, 0.0, 0.0, 0.05)",0.0,0.0,-0.0146607657168,"(1.7976931348623157e+308, 0.0, 0.0, 0.0, 1.7976931348623157e+308, 0.0, 0.0, 0.0, 0.05)",0.0,0.0,0.0,"(0.0, 0.0, 0.0, 0.0, 0.0, 0.0, 0.0, 0.0, 0.0)"
2019/10/07/19:05:01.211364,72,1570442701,210959186,gyro_link,0.0,0.0,-0.870656337967,0.491891798222,"(1.7976931348623157e+308, 0.0, 0.0, 0.0, 1.7976931348623157e+308, 0.0, 0.0, 0.0, 0.05)",0.0,0.0,-0.00890117918517,"(1.7976931348623157e+308, 0.0, 0.0, 0.0, 1.7976931348623157e+308, 0.0, 0.0, 0.0, 0.05)",0.0,0.0,0.0,"(0.0, 0.0, 0.0, 0.0, 0.0, 0.0, 0.0, 0.0, 0.0)"
2019/10/07/19:05:01.271122,73,1570442701,270664999,gyro_link,0.0,0.0,-0.871085262963,0.491131820032,"(1.7976931348623157e+308, 0.0, 0.0, 0.0, 1.7976931348623157e+308, 0.0, 0.0, 0.0, 0.05)",0.0,0.0,-0.0226892802759,"(1.7976931348623157e+308, 0.0, 0.0, 0.0, 1.7976931348623157e+308, 0.0, 0.0, 0.0, 0.05)",0.0,0.0,0.0,"(0.0, 0.0, 0.0, 0.0, 0.0, 0.0, 0.0, 0.0, 0.0)"
2019/10/07/19:05:01.330930,74,1570442701,330391653,gyro_link,0.0,0.0,-0.871128118983,0.491055801632,"(1.7976931348623157e+308, 0.0, 0.0, 0.0, 1.7976931348623157e+308, 0.0, 0.0, 0.0, 0.05)",0.0,0.0,0.000523598775598,"(1.7976931348623157e+308, 0.0, 0.0, 0.0, 1.7976931348623157e+308, 0.0, 0.0, 0.0, 0.05)",0.0,0.0,0.0,"(0.0, 0.0, 0.0, 0.0, 0.0, 0.0, 0.0, 0.0, 0.0)"
2019/10/07/19:05:01.390713,75,1570442701,390279696,gyro_link,0.0,0.0,-0.871128118983,0.491055801632,"(1.7976931348623157e+308, 0.0, 0.0, 0.0, 1.7976931348623157e+308, 0.0, 0.0, 0.0, 0.05)",0.0,0.0,0.00610865238198,"(1.7976931348623157e+308, 0.0, 0.0, 0.0, 1.7976931348623157e+308, 0.0, 0.0, 0.0, 0.05)",0.0,0.0,0.0,"(0.0, 0.0, 0.0, 0.0, 0.0, 0.0, 0.0, 0.0, 0.0)"
2019/10/07/19:05:01.450738,76,1570442701,450160999,gyro_link,0.0,0.0,-0.871128118983,0.491055801632,"(1.7976931348623157e+308, 0.0, 0.0, 0.0, 1.7976931348623157e+308, 0.0, 0.0, 0.0, 0.05)",0.0,0.0,-0.00628318530718,"(1.7976931348623157e+308, 0.0, 0.0, 0.0, 1.7976931348623157e+308, 0.0, 0.0, 0.0, 0.05)",0.0,0.0,0.0,"(0.0, 0.0, 0.0, 0.0, 0.0, 0.0, 0.0, 0.0, 0.0)"
2019/10/07/19:05:01.510638,77,1570442701,509918685,gyro_link,0.0,0.0,-0.871342299565,0.490675653552,"(1.7976931348623157e+308, 0.0, 0.0, 0.0, 1.7976931348623157e+308, 0.0, 0.0, 0.0, 0.05)",0.0,0.0,-0.010471975512,"(1.7976931348623157e+308, 0.0, 0.0, 0.0, 1.7976931348623157e+308, 0.0, 0.0, 0.0, 0.05)",0.0,0.0,0.0,"(0.0, 0.0, 0.0, 0.0, 0.0, 0.0, 0.0, 0.0, 0.0)"
2019/10/07/19:05:01.570508,78,1570442701,569892517,gyro_link,0.0,0.0,-0.871342299565,0.490675653552,"(1.7976931348623157e+308, 0.0, 0.0, 0.0, 1.7976931348623157e+308, 0.0, 0.0, 0.0, 0.05)",0.0,0.0,0.0010471975512,"(1.7976931348623157e+308, 0.0, 0.0, 0.0, 1.7976931348623157e+308, 0.0, 0.0, 0.0, 0.05)",0.0,0.0,0.0,"(0.0, 0.0, 0.0, 0.0, 0.0, 0.0, 0.0, 0.0, 0.0)"
2019/10/07/19:05:01.630246,79,1570442701,629725490,gyro_link,0.0,0.0,-0.871385115776,0.490599612724,"(1.7976931348623157e+308, 0.0, 0.0, 0.0, 1.7976931348623157e+308, 0.0, 0.0, 0.0, 0.05)",0.0,0.0,-0.00994837673637,"(1.7976931348623157e+308, 0.0, 0.0, 0.0, 1.7976931348623157e+308, 0.0, 0.0, 0.0, 0.05)",0.0,0.0,0.0,"(0.0, 0.0, 0.0, 0.0, 0.0, 0.0, 0.0, 0.0, 0.0)"
2019/10/07/19:05:01.690319,80,1570442701,689660462,gyro_link,0.0,0.0,-0.87151352459,0.490371467824,"(1.7976931348623157e+308, 0.0, 0.0, 0.0, 1.7976931348623157e+308, 0.0, 0.0, 0.0, 0.05)",0.0,0.0,0.00418879020479,"(1.7976931348623157e+308, 0.0, 0.0, 0.0, 1.7976931348623157e+308, 0.0, 0.0, 0.0, 0.05)",0.0,0.0,0.0,"(0.0, 0.0, 0.0, 0.0, 0.0, 0.0, 0.0, 0.0, 0.0)"
2019/10/07/19:05:01.749219,81,1570442701,748516897,gyro_link,0.0,0.0,-0.871470728289,0.490447519859,"(1.7976931348623157e+308, 0.0, 0.0, 0.0, 1.7976931348623157e+308, 0.0, 0.0, 0.0, 0.05)",0.0,0.0,0.0010471975512,"(1.7976931348623157e+308, 0.0, 0.0, 0.0, 1.7976931348623157e+308, 0.0, 0.0, 0.0, 0.05)",0.0,0.0,0.0,"(0.0, 0.0, 0.0, 0.0, 0.0, 0.0, 0.0, 0.0, 0.0)"
2019/10/07/19:05:01.849920,82,1570442701,849359132,gyro_link,0.0,0.0,-0.871684643425,0.490067222346,"(1.7976931348623157e+308, 0.0, 0.0, 0.0, 1.7976931348623157e+308, 0.0, 0.0, 0.0, 0.05)",0.0,0.0,-0.00837758040957,"(1.7976931348623157e+308, 0.0, 0.0, 0.0, 1.7976931348623157e+308, 0.0, 0.0, 0.0, 0.05)",0.0,0.0,0.0,"(0.0, 0.0, 0.0, 0.0, 0.0, 0.0, 0.0, 0.0, 0.0)"
2019/10/07/19:05:01.908952,83,1570442701,908231397,gyro_link,0.0,0.0,-0.871855656047,0.489762917154,"(1.7976931348623157e+308, 0.0, 0.0, 0.0, 1.7976931348623157e+308, 0.0, 0.0, 0.0, 0.05)",0.0,0.0,-0.0108210413624,"(1.7976931348623157e+308, 0.0, 0.0, 0.0, 1.7976931348623157e+308, 0.0, 0.0, 0.0, 0.05)",0.0,0.0,0.0,"(0.0, 0.0, 0.0, 0.0, 0.0, 0.0, 0.0, 0.0, 0.0)"
2019/10/07/19:05:01.966732,84,1570442701,966061017,gyro_link,0.0,0.0,-0.871855656047,0.489762917154,"(1.7976931348623157e+308, 0.0, 0.0, 0.0, 1.7976931348623157e+308, 0.0, 0.0, 0.0, 0.05)",0.0,0.0,-0.00698131700798,"(1.7976931348623157e+308, 0.0, 0.0, 0.0, 1.7976931348623157e+308, 0.0, 0.0, 0.0, 0.05)",0.0,0.0,0.0,"(0.0, 0.0, 0.0, 0.0, 0.0, 0.0, 0.0, 0.0, 0.0)"
2019/10/07/19:05:01.988570,85,1570442701,988059979,gyro_link,0.0,0.0,-0.871898392604,0.48968683153,"(1.7976931348623157e+308, 0.0, 0.0, 0.0, 1.7976931348623157e+308, 0.0, 0.0, 0.0, 0.05)",0.0,0.0,-0.0157079632679,"(1.7976931348623157e+308, 0.0, 0.0, 0.0, 1.7976931348623157e+308, 0.0, 0.0, 0.0, 0.05)",0.0,0.0,0.0,"(0.0, 0.0, 0.0, 0.0, 0.0, 0.0, 0.0, 0.0, 0.0)"
2019/10/07/19:05:02.046307,86,1570442702,45896952,gyro_link,0.0,0.0,-0.872026562436,0.489458552286,"(1.7976931348623157e+308, 0.0, 0.0, 0.0, 1.7976931348623157e+308, 0.0, 0.0, 0.0, 0.05)",0.0,0.0,0.00349065850399,"(1.7976931348623157e+308, 0.0, 0.0, 0.0, 1.7976931348623157e+308, 0.0, 0.0, 0.0, 0.05)",0.0,0.0,0.0,"(0.0, 0.0, 0.0, 0.0, 0.0, 0.0, 0.0, 0.0, 0.0)"
2019/10/07/19:05:02.068482,87,1570442702,67902900,gyro_link,0.0,0.0,-0.871983845799,0.489534649095,"(1.7976931348623157e+308, 0.0, 0.0, 0.0, 1.7976931348623157e+308, 0.0, 0.0, 0.0, 0.05)",0.0,0.0,0.00523598775598,"(1.7976931348623157e+308, 0.0, 0.0, 0.0, 1.7976931348623157e+308, 0.0, 0.0, 0.0, 0.05)",0.0,0.0,0.0,"(0.0, 0.0, 0.0, 0.0, 0.0, 0.0, 0.0, 0.0, 0.0)"
2019/10/07/19:05:02.126043,88,1570442702,125830980,gyro_link,0.0,0.0,-0.871941122522,0.489610742177,"(1.7976931348623157e+308, 0.0, 0.0, 0.0, 1.7976931348623157e+308, 0.0, 0.0, 0.0, 0.05)",0.0,0.0,-0.000698131700798,"(1.7976931348623157e+308, 0.0, 0.0, 0.0, 1.7976931348623157e+308, 0.0, 0.0, 0.0, 0.05)",0.0,0.0,0.0,"(0.0, 0.0, 0.0, 0.0, 0.0, 0.0, 0.0, 0.0, 0.0)"
2019/10/07/19:05:02.148244,89,1570442702,147637788,gyro_link,0.0,0.0,-0.871941122522,0.489610742177,"(1.7976931348623157e+308, 0.0, 0.0, 0.0, 1.7976931348623157e+308, 0.0, 0.0, 0.0, 0.05)",0.0,0.0,-0.00680678408278,"(1.7976931348623157e+308, 0.0, 0.0, 0.0, 1.7976931348623157e+308, 0.0, 0.0, 0.0, 0.05)",0.0,0.0,0.0,"(0.0, 0.0, 0.0, 0.0, 0.0, 0.0, 0.0, 0.0, 0.0)"
2019/10/07/19:05:02.206156,90,1570442702,205743198,gyro_link,0.0,0.0,-0.872240046001,0.489078012338,"(1.7976931348623157e+308, 0.0, 0.0, 0.0, 1.7976931348623157e+308, 0.0, 0.0, 0.0, 0.05)",0.0,0.0,-0.0195476876223,"(1.7976931348623157e+308, 0.0, 0.0, 0.0, 1.7976931348623157e+308, 0.0, 0.0, 0.0, 0.05)",0.0,0.0,0.0,"(0.0, 0.0, 0.0, 0.0, 0.0, 0.0, 0.0, 0.0, 0.0)"
2019/10/07/19:05:02.228037,91,1570442702,227577829,gyro_link,0.0,0.0,-0.872325392932,0.488925770283,"(1.7976931348623157e+308, 0.0, 0.0, 0.0, 1.7976931348623157e+308, 0.0, 0.0, 0.0, 0.05)",0.0,0.0,-0.0155334303427,"(1.7976931348623157e+308, 0.0, 0.0, 0.0, 1.7976931348623157e+308, 0.0, 0.0, 0.0, 0.05)",0.0,0.0,0.0,"(0.0, 0.0, 0.0, 0.0, 0.0, 0.0, 0.0, 0.0, 0.0)"
2019/10/07/19:05:02.287997,92,1570442702,287657559,gyro_link,0.0,0.0,-0.872368056432,0.48884964367,"(1.7976931348623157e+308, 0.0, 0.0, 0.0, 1.7976931348623157e+308, 0.0, 0.0, 0.0, 0.05)",0.0,0.0,-0.00209439510239,"(1.7976931348623157e+308, 0.0, 0.0, 0.0, 1.7976931348623157e+308, 0.0, 0.0, 0.0, 0.05)",0.0,0.0,0.0,"(0.0, 0.0, 0.0, 0.0, 0.0, 0.0, 0.0, 0.0, 0.0)"
2019/10/07/19:05:02.345879,93,1570442702,345502106,gyro_link,0.0,0.0,-0.87241071329,0.488773513334,"(1.7976931348623157e+308, 0.0, 0.0, 0.0, 1.7976931348623157e+308, 0.0, 0.0, 0.0, 0.05)",0.0,0.0,-0.00575958653158,"(1.7976931348623157e+308, 0.0, 0.0, 0.0, 1.7976931348623157e+308, 0.0, 0.0, 0.0, 0.05)",0.0,0.0,0.0,"(0.0, 0.0, 0.0, 0.0, 0.0, 0.0, 0.0, 0.0, 0.0)"
2019/10/07/19:05:02.367989,94,1570442702,367528618,gyro_link,0.0,0.0,-0.872453363503,0.488697379276,"(1.7976931348623157e+308, 0.0, 0.0, 0.0, 1.7976931348623157e+308, 0.0, 0.0, 0.0, 0.05)",0.0,0.0,-0.00855211333477,"(1.7976931348623157e+308, 0.0, 0.0, 0.0, 1.7976931348623157e+308, 0.0, 0.0, 0.0, 0.05)",0.0,0.0,0.0,"(0.0, 0.0, 0.0, 0.0, 0.0, 0.0, 0.0, 0.0, 0.0)"
2019/10/07/19:05:02.425714,95,1570442702,425149710,gyro_link,0.0,0.0,-0.872623897913,0.488392805834,"(1.7976931348623157e+308, 0.0, 0.0, 0.0, 1.7976931348623157e+308, 0.0, 0.0, 0.0, 0.05)",0.0,0.0,0.000698131700798,"(1.7976931348623157e+308, 0.0, 0.0, 0.0, 1.7976931348623157e+308, 0.0, 0.0, 0.0, 0.05)",0.0,0.0,0.0,"(0.0, 0.0, 0.0, 0.0, 0.0, 0.0, 0.0, 0.0, 0.0)"
2019/10/07/19:05:02.447794,96,1570442702,447382117,gyro_link,0.0,0.0,-0.872581274278,0.488468954775,"(1.7976931348623157e+308, 0.0, 0.0, 0.0, 1.7976931348623157e+308, 0.0, 0.0, 0.0, 0.05)",0.0,0.0,0.0102974425868,"(1.7976931348623157e+308, 0.0, 0.0, 0.0, 1.7976931348623157e+308, 0.0, 0.0, 0.0, 0.05)",0.0,0.0,0.0,"(0.0, 0.0, 0.0, 0.0, 0.0, 0.0, 0.0, 0.0, 0.0)"
2019/10/07/19:05:02.507603,97,1570442702,507202504,gyro_link,0.0,0.0,-0.872538643998,0.488545099996,"(1.7976931348623157e+308, 0.0, 0.0, 0.0, 1.7976931348623157e+308, 0.0, 0.0, 0.0, 0.05)",0.0,0.0,0.00436332312999,"(1.7976931348623157e+308, 0.0, 0.0, 0.0, 1.7976931348623157e+308, 0.0, 0.0, 0.0, 0.05)",0.0,0.0,0.0,"(0.0, 0.0, 0.0, 0.0, 0.0, 0.0, 0.0, 0.0, 0.0)"
2019/10/07/19:05:02.565398,98,1570442702,564986644,gyro_link,0.0,0.0,-0.872623897913,0.488392805834,"(1.7976931348623157e+308, 0.0, 0.0, 0.0, 1.7976931348623157e+308, 0.0, 0.0, 0.0, 0.05)",0.0,0.0,-0.00785398163397,"(1.7976931348623157e+308, 0.0, 0.0, 0.0, 1.7976931348623157e+308, 0.0, 0.0, 0.0, 0.05)",0.0,0.0,0.0,"(0.0, 0.0, 0.0, 0.0, 0.0, 0.0, 0.0, 0.0, 0.0)"
2019/10/07/19:05:02.587590,99,1570442702,587148474,gyro_link,0.0,0.0,-0.872666514903,0.488316653174,"(1.7976931348623157e+308, 0.0, 0.0, 0.0, 1.7976931348623157e+308, 0.0, 0.0, 0.0, 0.05)",0.0,0.0,-0.00925024503557,"(1.7976931348623157e+308, 0.0, 0.0, 0.0, 1.7976931348623157e+308, 0.0, 0.0, 0.0, 0.05)",0.0,0.0,0.0,"(0.0, 0.0, 0.0, 0.0, 0.0, 0.0, 0.0, 0.0, 0.0)"
2019/10/07/19:05:02.645314,100,1570442702,645024163,gyro_link,0.0,0.0,-0.872836916401,0.488012005351,"(1.7976931348623157e+308, 0.0, 0.0, 0.0, 1.7976931348623157e+308, 0.0, 0.0, 0.0, 0.05)",0.0,0.0,-0.00890117918517,"(1.7976931348623157e+308, 0.0, 0.0, 0.0, 1.7976931348623157e+308, 0.0, 0.0, 0.0, 0.05)",0.0,0.0,0.0,"(0.0, 0.0, 0.0, 0.0, 0.0, 0.0, 0.0, 0.0, 0.0)"
2019/10/07/19:05:02.667455,101,1570442702,667114993,gyro_link,0.0,0.0,-0.872879500159,0.487935834103,"(1.7976931348623157e+308, 0.0, 0.0, 0.0, 1.7976931348623157e+308, 0.0, 0.0, 0.0, 0.05)",0.0,0.0,-0.00523598775598,"(1.7976931348623157e+308, 0.0, 0.0, 0.0, 1.7976931348623157e+308, 0.0, 0.0, 0.0, 0.05)",0.0,0.0,0.0,"(0.0, 0.0, 0.0, 0.0, 0.0, 0.0, 0.0, 0.0, 0.0)"
2019/10/07/19:05:02.727134,102,1570442702,726672710,gyro_link,0.0,0.0,-0.872879500159,0.487935834103,"(1.7976931348623157e+308, 0.0, 0.0, 0.0, 1.7976931348623157e+308, 0.0, 0.0, 0.0, 0.05)",0.0,0.0,0.00855211333477,"(1.7976931348623157e+308, 0.0, 0.0, 0.0, 1.7976931348623157e+308, 0.0, 0.0, 0.0, 0.05)",0.0,0.0,0.0,"(0.0, 0.0, 0.0, 0.0, 0.0, 0.0, 0.0, 0.0, 0.0)"
2019/10/07/19:05:02.787414,103,1570442702,786868490,gyro_link,0.0,0.0,-0.87292207727,0.487859659139,"(1.7976931348623157e+308, 0.0, 0.0, 0.0, 1.7976931348623157e+308, 0.0, 0.0, 0.0, 0.05)",0.0,0.0,-0.00785398163397,"(1.7976931348623157e+308, 0.0, 0.0, 0.0, 1.7976931348623157e+308, 0.0, 0.0, 0.0, 0.05)",0.0,0.0,0.0,"(0.0, 0.0, 0.0, 0.0, 0.0, 0.0, 0.0, 0.0, 0.0)"
2019/10/07/19:05:02.846915,104,1570442702,846627861,gyro_link,0.0,0.0,-0.872964647733,0.487783480459,"(1.7976931348623157e+308, 0.0, 0.0, 0.0, 1.7976931348623157e+308, 0.0, 0.0, 0.0, 0.05)",0.0,0.0,-0.0172787595947,"(1.7976931348623157e+308, 0.0, 0.0, 0.0, 1.7976931348623157e+308, 0.0, 0.0, 0.0, 0.05)",0.0,0.0,0.0,"(0.0, 0.0, 0.0, 0.0, 0.0, 0.0, 0.0, 0.0, 0.0)"
2019/10/07/19:05:02.906998,105,1570442702,906593139,gyro_link,0.0,0.0,-0.87321993089,0.487326330395,"(1.7976931348623157e+308, 0.0, 0.0, 0.0, 1.7976931348623157e+308, 0.0, 0.0, 0.0, 0.05)",0.0,0.0,-0.00366519142919,"(1.7976931348623157e+308, 0.0, 0.0, 0.0, 1.7976931348623157e+308, 0.0, 0.0, 0.0, 0.05)",0.0,0.0,0.0,"(0.0, 0.0, 0.0, 0.0, 0.0, 0.0, 0.0, 0.0, 0.0)"
2019/10/07/19:05:02.927996,106,1570442702,927456194,gyro_link,0.0,0.0,-0.87321993089,0.487326330395,"(1.7976931348623157e+308, 0.0, 0.0, 0.0, 1.7976931348623157e+308, 0.0, 0.0, 0.0, 0.05)",0.0,0.0,-0.00820304748437,"(1.7976931348623157e+308, 0.0, 0.0, 0.0, 1.7976931348623157e+308, 0.0, 0.0, 0.0, 0.05)",0.0,0.0,0.0,"(0.0, 0.0, 0.0, 0.0, 0.0, 0.0, 0.0, 0.0, 0.0)"
2019/10/07/19:05:02.966639,107,1570442702,966251327,gyro_link,0.0,0.0,-0.87321993089,0.487326330395,"(1.7976931348623157e+308, 0.0, 0.0, 0.0, 1.7976931348623157e+308, 0.0, 0.0, 0.0, 0.05)",0.0,0.0,0.0115191730632,"(1.7976931348623157e+308, 0.0, 0.0, 0.0, 1.7976931348623157e+308, 0.0, 0.0, 0.0, 0.05)",0.0,0.0,0.0,"(0.0, 0.0, 0.0, 0.0, 0.0, 0.0, 0.0, 0.0, 0.0)"
2019/10/07/19:05:03.026546,108,1570442703,26121502,gyro_link,0.0,0.0,-0.87326245481,0.487250125725,"(1.7976931348623157e+308, 0.0, 0.0, 0.0, 1.7976931348623157e+308, 0.0, 0.0, 0.0, 0.05)",0.0,0.0,-0.00314159265359,"(1.7976931348623157e+308, 0.0, 0.0, 0.0, 1.7976931348623157e+308, 0.0, 0.0, 0.0, 0.05)",0.0,0.0,0.0,"(0.0, 0.0, 0.0, 0.0, 0.0, 0.0, 0.0, 0.0, 0.0)"
2019/10/07/19:05:03.086522,109,1570442703,86064580,gyro_link,0.0,0.0,-0.873347482699,0.487097705254,"(1.7976931348623157e+308, 0.0, 0.0, 0.0, 1.7976931348623157e+308, 0.0, 0.0, 0.0, 0.05)",0.0,0.0,-0.0172787595947,"(1.7976931348623157e+308, 0.0, 0.0, 0.0, 1.7976931348623157e+308, 0.0, 0.0, 0.0, 0.05)",0.0,0.0,0.0,"(0.0, 0.0, 0.0, 0.0, 0.0, 0.0, 0.0, 0.0, 0.0)"
2019/10/07/19:05:03.146566,110,1570442703,146031430,gyro_link,0.0,0.0,-0.873389986667,0.487021489454,"(1.7976931348623157e+308, 0.0, 0.0, 0.0, 1.7976931348623157e+308, 0.0, 0.0, 0.0, 0.05)",0.0,0.0,0.00506145483078,"(1.7976931348623157e+308, 0.0, 0.0, 0.0, 1.7976931348623157e+308, 0.0, 0.0, 0.0, 0.05)",0.0,0.0,0.0,"(0.0, 0.0, 0.0, 0.0, 0.0, 0.0, 0.0, 0.0, 0.0)"
2019/10/07/19:05:03.206518,111,1570442703,206006795,gyro_link,0.0,0.0,-0.873432483984,0.486945269945,"(1.7976931348623157e+308, 0.0, 0.0, 0.0, 1.7976931348623157e+308, 0.0, 0.0, 0.0, 0.05)",0.0,0.0,-0.0197222205475,"(1.7976931348623157e+308, 0.0, 0.0, 0.0, 1.7976931348623157e+308, 0.0, 0.0, 0.0, 0.05)",0.0,0.0,0.0,"(0.0, 0.0, 0.0, 0.0, 0.0, 0.0, 0.0, 0.0, 0.0)"
2019/10/07/19:05:03.266175,112,1570442703,265840202,gyro_link,0.0,0.0,-0.873559936024,0.486716589171,"(1.7976931348623157e+308, 0.0, 0.0, 0.0, 1.7976931348623157e+308, 0.0, 0.0, 0.0, 0.05)",0.0,0.0,0.0,"(1.7976931348623157e+308, 0.0, 0.0, 0.0, 1.7976931348623157e+308, 0.0, 0.0, 0.0, 0.05)",0.0,0.0,0.0,"(0.0, 0.0, 0.0, 0.0, 0.0, 0.0, 0.0, 0.0, 0.0)"
2019/10/07/19:05:03.324916,113,1570442703,324657520,gyro_link,0.0,0.0,-0.873899515395,0.486106610727,"(1.7976931348623157e+308, 0.0, 0.0, 0.0, 1.7976931348623157e+308, 0.0, 0.0, 0.0, 0.05)",0.0,0.0,-0.0218166156499,"(1.7976931348623157e+308, 0.0, 0.0, 0.0, 1.7976931348623157e+308, 0.0, 0.0, 0.0, 0.05)",0.0,0.0,0.0,"(0.0, 0.0, 0.0, 0.0, 0.0, 0.0, 0.0, 0.0, 0.0)"
2019/10/07/19:05:03.346096,114,1570442703,345610164,gyro_link,0.0,0.0,-0.873899515395,0.486106610727,"(1.7976931348623157e+308, 0.0, 0.0, 0.0, 1.7976931348623157e+308, 0.0, 0.0, 0.0, 0.05)",0.0,0.0,0.00331612557879,"(1.7976931348623157e+308, 0.0, 0.0, 0.0, 1.7976931348623157e+308, 0.0, 0.0, 0.0, 0.05)",0.0,0.0,0.0,"(0.0, 0.0, 0.0, 0.0, 0.0, 0.0, 0.0, 0.0, 0.0)"
2019/10/07/19:05:03.405824,115,1570442703,405434648,gyro_link,0.0,0.0,-0.87372977894,0.486411629583,"(1.7976931348623157e+308, 0.0, 0.0, 0.0, 1.7976931348623157e+308, 0.0, 0.0, 0.0, 0.05)",0.0,0.0,0.00680678408278,"(1.7976931348623157e+308, 0.0, 0.0, 0.0, 1.7976931348623157e+308, 0.0, 0.0, 0.0, 0.05)",0.0,0.0,0.0,"(0.0, 0.0, 0.0, 0.0, 0.0, 0.0, 0.0, 0.0, 0.0)"
2019/10/07/19:05:03.466110,116,1570442703,465345083,gyro_link,0.0,0.0,-0.873941932872,0.486030346756,"(1.7976931348623157e+308, 0.0, 0.0, 0.0, 1.7976931348623157e+308, 0.0, 0.0, 0.0, 0.05)",0.0,0.0,-0.00174532925199,"(1.7976931348623157e+308, 0.0, 0.0, 0.0, 1.7976931348623157e+308, 0.0, 0.0, 0.0, 0.05)",0.0,0.0,0.0,"(0.0, 0.0, 0.0, 0.0, 0.0, 0.0, 0.0, 0.0, 0.0)"
2019/10/07/19:05:03.524822,117,1570442703,524413678,gyro_link,0.0,0.0,-0.873984343693,0.485954079085,"(1.7976931348623157e+308, 0.0, 0.0, 0.0, 1.7976931348623157e+308, 0.0, 0.0, 0.0, 0.05)",0.0,0.0,-0.0307177948351,"(1.7976931348623157e+308, 0.0, 0.0, 0.0, 1.7976931348623157e+308, 0.0, 0.0, 0.0, 0.05)",0.0,0.0,0.0,"(0.0, 0.0, 0.0, 0.0, 0.0, 0.0, 0.0, 0.0, 0.0)"
2019/10/07/19:05:03.582470,118,1570442703,582044637,gyro_link,0.0,0.0,-0.874238668839,0.48549639536,"(1.7976931348623157e+308, 0.0, 0.0, 0.0, 1.7976931348623157e+308, 0.0, 0.0, 0.0, 0.05)",0.0,0.0,0.0102974425868,"(1.7976931348623157e+308, 0.0, 0.0, 0.0, 1.7976931348623157e+308, 0.0, 0.0, 0.0, 0.05)",0.0,0.0,0.0,"(0.0, 0.0, 0.0, 0.0, 0.0, 0.0, 0.0, 0.0, 0.0)"
2019/10/07/19:05:03.604348,119,1570442703,604006309,gyro_link,0.0,0.0,-0.874196297957,0.485572685227,"(1.7976931348623157e+308, 0.0, 0.0, 0.0, 1.7976931348623157e+308, 0.0, 0.0, 0.0, 0.05)",0.0,0.0,0.00994837673637,"(1.7976931348623157e+308, 0.0, 0.0, 0.0, 1.7976931348623157e+308, 0.0, 0.0, 0.0, 0.05)",0.0,0.0,0.0,"(0.0, 0.0, 0.0, 0.0, 0.0, 0.0, 0.0, 0.0, 0.0)"
2019/10/07/19:05:03.662277,120,1570442703,661947239,gyro_link,0.0,0.0,-0.874492754306,0.485038578533,"(1.7976931348623157e+308, 0.0, 0.0, 0.0, 1.7976931348623157e+308, 0.0, 0.0, 0.0, 0.05)",0.0,0.0,-0.0198967534727,"(1.7976931348623157e+308, 0.0, 0.0, 0.0, 1.7976931348623157e+308, 0.0, 0.0, 0.0, 0.05)",0.0,0.0,0.0,"(0.0, 0.0, 0.0, 0.0, 0.0, 0.0, 0.0, 0.0, 0.0)"
2019/10/07/19:05:03.684304,121,1570442703,683851496,gyro_link,0.0,0.0,-0.874535078577,0.484962262797,"(1.7976931348623157e+308, 0.0, 0.0, 0.0, 1.7976931348623157e+308, 0.0, 0.0, 0.0, 0.05)",0.0,0.0,0.00261799387799,"(1.7976931348623157e+308, 0.0, 0.0, 0.0, 1.7976931348623157e+308, 0.0, 0.0, 0.0, 0.05)",0.0,0.0,0.0,"(0.0, 0.0, 0.0, 0.0, 0.0, 0.0, 0.0, 0.0, 0.0)"
2019/10/07/19:05:03.742553,122,1570442703,741771260,gyro_link,0.0,0.0,-0.874535078577,0.484962262797,"(1.7976931348623157e+308, 0.0, 0.0, 0.0, 1.7976931348623157e+308, 0.0, 0.0, 0.0, 0.05)",0.0,0.0,-0.0172787595947,"(1.7976931348623157e+308, 0.0, 0.0, 0.0, 1.7976931348623157e+308, 0.0, 0.0, 0.0, 0.05)",0.0,0.0,0.0,"(0.0, 0.0, 0.0, 0.0, 0.0, 0.0, 0.0, 0.0, 0.0)"
2019/10/07/19:05:03.764189,123,1570442703,763730056,gyro_link,0.0,0.0,-0.87466201143,0.484733293432,"(1.7976931348623157e+308, 0.0, 0.0, 0.0, 1.7976931348623157e+308, 0.0, 0.0, 0.0, 0.05)",0.0,0.0,-0.0314159265359,"(1.7976931348623157e+308, 0.0, 0.0, 0.0, 1.7976931348623157e+308, 0.0, 0.0, 0.0, 0.05)",0.0,0.0,0.0,"(0.0, 0.0, 0.0, 0.0, 0.0, 0.0, 0.0, 0.0, 0.0)"
2019/10/07/19:05:03.822179,124,1570442703,821784770,gyro_link,0.0,0.0,-0.874619707139,0.484809620246,"(1.7976931348623157e+308, 0.0, 0.0, 0.0, 1.7976931348623157e+308, 0.0, 0.0, 0.0, 0.05)",0.0,0.0,0.0326376570123,"(1.7976931348623157e+308, 0.0, 0.0, 0.0, 1.7976931348623157e+308, 0.0, 0.0, 0.0, 0.05)",0.0,0.0,0.0,"(0.0, 0.0, 0.0, 0.0, 0.0, 0.0, 0.0, 0.0, 0.0)"
2019/10/07/19:05:03.843902,125,1570442703,843503299,gyro_link,0.0,0.0,-0.874577396189,0.484885943368,"(1.7976931348623157e+308, 0.0, 0.0, 0.0, 1.7976931348623157e+308, 0.0, 0.0, 0.0, 0.05)",0.0,0.0,0.000349065850399,"(1.7976931348623157e+308, 0.0, 0.0, 0.0, 1.7976931348623157e+308, 0.0, 0.0, 0.0, 0.05)",0.0,0.0,0.0,"(0.0, 0.0, 0.0, 0.0, 0.0, 0.0, 0.0, 0.0, 0.0)"
2019/10/07/19:05:03.904038,126,1570442703,903526963,gyro_link,0.0,0.0,-0.874831161978,0.484427949268,"(1.7976931348623157e+308, 0.0, 0.0, 0.0, 1.7976931348623157e+308, 0.0, 0.0, 0.0, 0.05)",0.0,0.0,0.0106465084372,"(1.7976931348623157e+308, 0.0, 0.0, 0.0, 1.7976931348623157e+308, 0.0, 0.0, 0.0, 0.05)",0.0,0.0,0.0,"(0.0, 0.0, 0.0, 0.0, 0.0, 0.0, 0.0, 0.0, 0.0)"
2019/10/07/19:05:03.962081,127,1570442703,961376970,gyro_link,0.0,0.0,-0.875169143268,0.483817083899,"(1.7976931348623157e+308, 0.0, 0.0, 0.0, 1.7976931348623157e+308, 0.0, 0.0, 0.0, 0.05)",0.0,0.0,-0.0661479786506,"(1.7976931348623157e+308, 0.0, 0.0, 0.0, 1.7976931348623157e+308, 0.0, 0.0, 0.0, 0.05)",0.0,0.0,0.0,"(0.0, 0.0, 0.0, 0.0, 0.0, 0.0, 0.0, 0.0, 0.0)"
2019/10/07/19:05:03.984284,128,1570442703,983801236,gyro_link,0.0,0.0,-0.875380164978,0.483435173278,"(1.7976931348623157e+308, 0.0, 0.0, 0.0, 1.7976931348623157e+308, 0.0, 0.0, 0.0, 0.05)",0.0,0.0,-0.0310668606855,"(1.7976931348623157e+308, 0.0, 0.0, 0.0, 1.7976931348623157e+308, 0.0, 0.0, 0.0, 0.05)",0.0,0.0,0.0,"(0.0, 0.0, 0.0, 0.0, 0.0, 0.0, 0.0, 0.0, 0.0)"
2019/10/07/19:05:04.043937,129,1570442704,43316926,gyro_link,0.0,0.0,-0.875169143268,0.483817083899,"(1.7976931348623157e+308, 0.0, 0.0, 0.0, 1.7976931348623157e+308, 0.0, 0.0, 0.0, 0.05)",0.0,0.0,0.0188495559215,"(1.7976931348623157e+308, 0.0, 0.0, 0.0, 1.7976931348623157e+308, 0.0, 0.0, 0.0, 0.05)",0.0,0.0,0.0,"(0.0, 0.0, 0.0, 0.0, 0.0, 0.0, 0.0, 0.0, 0.0)"
2019/10/07/19:05:04.103470,130,1570442704,103055823,gyro_link,0.0,0.0,-0.875211360941,0.483740709141,"(1.7976931348623157e+308, 0.0, 0.0, 0.0, 1.7976931348623157e+308, 0.0, 0.0, 0.0, 0.05)",0.0,0.0,-0.00191986217719,"(1.7976931348623157e+308, 0.0, 0.0, 0.0, 1.7976931348623157e+308, 0.0, 0.0, 0.0, 0.05)",0.0,0.0,0.0,"(0.0, 0.0, 0.0, 0.0, 0.0, 0.0, 0.0, 0.0, 0.0)"
2019/10/07/19:05:04.163791,131,1570442704,163368964,gyro_link,0.0,0.0,-0.875337973968,0.483511562768,"(1.7976931348623157e+308, 0.0, 0.0, 0.0, 1.7976931348623157e+308, 0.0, 0.0, 0.0, 0.05)",0.0,0.0,-0.0413643032723,"(1.7976931348623157e+308, 0.0, 0.0, 0.0, 1.7976931348623157e+308, 0.0, 0.0, 0.0, 0.05)",0.0,0.0,0.0,"(0.0, 0.0, 0.0, 0.0, 0.0, 0.0, 0.0, 0.0, 0.0)"
2019/10/07/19:05:04.223212,132,1570442704,222824235,gyro_link,0.0,0.0,-0.87550669801,0.483205982722,"(1.7976931348623157e+308, 0.0, 0.0, 0.0, 1.7976931348623157e+308, 0.0, 0.0, 0.0, 0.05)",0.0,0.0,0.0246091424531,"(1.7976931348623157e+308, 0.0, 0.0, 0.0, 1.7976931348623157e+308, 0.0, 0.0, 0.0, 0.05)",0.0,0.0,0.0,"(0.0, 0.0, 0.0, 0.0, 0.0, 0.0, 0.0, 0.0, 0.0)"
2019/10/07/19:05:04.283314,133,1570442704,282929460,gyro_link,0.0,0.0,-0.87550669801,0.483205982722,"(1.7976931348623157e+308, 0.0, 0.0, 0.0, 1.7976931348623157e+308, 0.0, 0.0, 0.0, 0.05)",0.0,0.0,-0.0256563400043,"(1.7976931348623157e+308, 0.0, 0.0, 0.0, 1.7976931348623157e+308, 0.0, 0.0, 0.0, 0.05)",0.0,0.0,0.0,"(0.0, 0.0, 0.0, 0.0, 0.0, 0.0, 0.0, 0.0, 0.0)"
2019/10/07/19:05:04.343226,134,1570442704,342736285,gyro_link,0.0,0.0,-0.875591020029,0.483053170619,"(1.7976931348623157e+308, 0.0, 0.0, 0.0, 1.7976931348623157e+308, 0.0, 0.0, 0.0, 0.05)",0.0,0.0,0.00820304748437,"(1.7976931348623157e+308, 0.0, 0.0, 0.0, 1.7976931348623157e+308, 0.0, 0.0, 0.0, 0.05)",0.0,0.0,0.0,"(0.0, 0.0, 0.0, 0.0, 0.0, 0.0, 0.0, 0.0, 0.0)"
2019/10/07/19:05:04.403123,135,1570442704,402601659,gyro_link,0.0,0.0,-0.875759584047,0.482747502272,"(1.7976931348623157e+308, 0.0, 0.0, 0.0, 1.7976931348623157e+308, 0.0, 0.0, 0.0, 0.05)",0.0,0.0,-0.0144862327916,"(1.7976931348623157e+308, 0.0, 0.0, 0.0, 1.7976931348623157e+308, 0.0, 0.0, 0.0, 0.05)",0.0,0.0,0.0,"(0.0, 0.0, 0.0, 0.0, 0.0, 0.0, 0.0, 0.0, 0.0)"
2019/10/07/19:05:04.463096,136,1570442704,462606080,gyro_link,0.0,0.0,-0.875591020029,0.483053170619,"(1.7976931348623157e+308, 0.0, 0.0, 0.0, 1.7976931348623157e+308, 0.0, 0.0, 0.0, 0.05)",0.0,0.0,0.00436332312999,"(1.7976931348623157e+308, 0.0, 0.0, 0.0, 1.7976931348623157e+308, 0.0, 0.0, 0.0, 0.05)",0.0,0.0,0.0,"(0.0, 0.0, 0.0, 0.0, 0.0, 0.0, 0.0, 0.0, 0.0)"
2019/10/07/19:05:04.521092,137,1570442704,520351457,gyro_link,0.0,0.0,-0.876054314299,0.482212441148,"(1.7976931348623157e+308, 0.0, 0.0, 0.0, 1.7976931348623157e+308, 0.0, 0.0, 0.0, 0.05)",0.0,0.0,-0.0123918376892,"(1.7976931348623157e+308, 0.0, 0.0, 0.0, 1.7976931348623157e+308, 0.0, 0.0, 0.0, 0.05)",0.0,0.0,0.0,"(0.0, 0.0, 0.0, 0.0, 0.0, 0.0, 0.0, 0.0, 0.0)"
2019/10/07/19:05:04.542759,138,1570442704,542222545,gyro_link,0.0,0.0,-0.876054314299,0.482212441148,"(1.7976931348623157e+308, 0.0, 0.0, 0.0, 1.7976931348623157e+308, 0.0, 0.0, 0.0, 0.05)",0.0,0.0,0.00541052068118,"(1.7976931348623157e+308, 0.0, 0.0, 0.0, 1.7976931348623157e+308, 0.0, 0.0, 0.0, 0.05)",0.0,0.0,0.0,"(0.0, 0.0, 0.0, 0.0, 0.0, 0.0, 0.0, 0.0, 0.0)"
2019/10/07/19:05:04.602442,139,1570442704,602073808,gyro_link,0.0,0.0,-0.876054314299,0.482212441148,"(1.7976931348623157e+308, 0.0, 0.0, 0.0, 1.7976931348623157e+308, 0.0, 0.0, 0.0, 0.05)",0.0,0.0,-0.0143116998664,"(1.7976931348623157e+308, 0.0, 0.0, 0.0, 1.7976931348623157e+308, 0.0, 0.0, 0.0, 0.05)",0.0,0.0,0.0,"(0.0, 0.0, 0.0, 0.0, 0.0, 0.0, 0.0, 0.0, 0.0)"
2019/10/07/19:05:04.662750,140,1570442704,662111182,gyro_link,0.0,0.0,-0.875928041357,0.482441775103,"(1.7976931348623157e+308, 0.0, 0.0, 0.0, 1.7976931348623157e+308, 0.0, 0.0, 0.0, 0.05)",0.0,0.0,0.0263544717051,"(1.7976931348623157e+308, 0.0, 0.0, 0.0, 1.7976931348623157e+308, 0.0, 0.0, 0.0, 0.05)",0.0,0.0,0.0,"(0.0, 0.0, 0.0, 0.0, 0.0, 0.0, 0.0, 0.0, 0.0)"
2019/10/07/19:05:04.721287,141,1570442704,720918622,gyro_link,0.0,0.0,-0.876096391937,0.482135989151,"(1.7976931348623157e+308, 0.0, 0.0, 0.0, 1.7976931348623157e+308, 0.0, 0.0, 0.0, 0.05)",0.0,0.0,-0.0342084533391,"(1.7976931348623157e+308, 0.0, 0.0, 0.0, 1.7976931348623157e+308, 0.0, 0.0, 0.0, 0.05)",0.0,0.0,0.0,"(0.0, 0.0, 0.0, 0.0, 0.0, 0.0, 0.0, 0.0, 0.0)"
2019/10/07/19:05:04.742216,142,1570442704,741795663,gyro_link,0.0,0.0,-0.876138462904,0.482059533482,"(1.7976931348623157e+308, 0.0, 0.0, 0.0, 1.7976931348623157e+308, 0.0, 0.0, 0.0, 0.05)",0.0,0.0,0.00785398163397,"(1.7976931348623157e+308, 0.0, 0.0, 0.0, 1.7976931348623157e+308, 0.0, 0.0, 0.0, 0.05)",0.0,0.0,0.0,"(0.0, 0.0, 0.0, 0.0, 0.0, 0.0, 0.0, 0.0, 0.0)"
2019/10/07/19:05:04.801397,143,1570442704,800826982,gyro_link,0.0,0.0,-0.876180527198,0.481983074142,"(1.7976931348623157e+308, 0.0, 0.0, 0.0, 1.7976931348623157e+308, 0.0, 0.0, 0.0, 0.05)",0.0,0.0,-0.0282743338823,"(1.7976931348623157e+308, 0.0, 0.0, 0.0, 1.7976931348623157e+308, 0.0, 0.0, 0.0, 0.05)",0.0,0.0,0.0,"(0.0, 0.0, 0.0, 0.0, 0.0, 0.0, 0.0, 0.0, 0.0)"
2019/10/07/19:05:04.859202,144,1570442704,858771529,gyro_link,0.0,0.0,-0.876306680044,0.481753674102,"(1.7976931348623157e+308, 0.0, 0.0, 0.0, 1.7976931348623157e+308, 0.0, 0.0, 0.0, 0.05)",0.0,0.0,0.011344640138,"(1.7976931348623157e+308, 0.0, 0.0, 0.0, 1.7976931348623157e+308, 0.0, 0.0, 0.0, 0.05)",0.0,0.0,0.0,"(0.0, 0.0, 0.0, 0.0, 0.0, 0.0, 0.0, 0.0, 0.0)"
2019/10/07/19:05:04.881898,145,1570442704,881571047,gyro_link,0.0,0.0,-0.876306680044,0.481753674102,"(1.7976931348623157e+308, 0.0, 0.0, 0.0, 1.7976931348623157e+308, 0.0, 0.0, 0.0, 0.05)",0.0,0.0,-0.000698131700798,"(1.7976931348623157e+308, 0.0, 0.0, 0.0, 1.7976931348623157e+308, 0.0, 0.0, 0.0, 0.05)",0.0,0.0,0.0,"(0.0, 0.0, 0.0, 0.0, 0.0, 0.0, 0.0, 0.0, 0.0)"
2019/10/07/19:05:04.940959,146,1570442704,940523962,gyro_link,0.0,0.0,-0.876642793978,0.481141779278,"(1.7976931348623157e+308, 0.0, 0.0, 0.0, 1.7976931348623157e+308, 0.0, 0.0, 0.0, 0.05)",0.0,0.0,-0.0251327412287,"(1.7976931348623157e+308, 0.0, 0.0, 0.0, 1.7976931348623157e+308, 0.0, 0.0, 0.0, 0.05)",0.0,0.0,0.0,"(0.0, 0.0, 0.0, 0.0, 0.0, 0.0, 0.0, 0.0, 0.0)"
2019/10/07/19:05:04.998919,147,1570442704,998408426,gyro_link,0.0,0.0,-0.876600803099,0.481218278961,"(1.7976931348623157e+308, 0.0, 0.0, 0.0, 1.7976931348623157e+308, 0.0, 0.0, 0.0, 0.05)",0.0,0.0,-0.0193731546971,"(1.7976931348623157e+308, 0.0, 0.0, 0.0, 1.7976931348623157e+308, 0.0, 0.0, 0.0, 0.05)",0.0,0.0,0.0,"(0.0, 0.0, 0.0, 0.0, 0.0, 0.0, 0.0, 0.0, 0.0)"
2019/10/07/19:05:05.021025,148,1570442705,20641492,gyro_link,0.0,0.0,-0.876726755708,0.480988768919,"(1.7976931348623157e+308, 0.0, 0.0, 0.0, 1.7976931348623157e+308, 0.0, 0.0, 0.0, 0.05)",0.0,0.0,-0.0289724655831,"(1.7976931348623157e+308, 0.0, 0.0, 0.0, 1.7976931348623157e+308, 0.0, 0.0, 0.0, 0.05)",0.0,0.0,0.0,"(0.0, 0.0, 0.0, 0.0, 0.0, 0.0, 0.0, 0.0, 0.0)"
2019/10/07/19:05:05.078933,149,1570442705,78399421,gyro_link,0.0,0.0,-0.876726755708,0.480988768919,"(1.7976931348623157e+308, 0.0, 0.0, 0.0, 1.7976931348623157e+308, 0.0, 0.0, 0.0, 0.05)",0.0,0.0,0.0109955742876,"(1.7976931348623157e+308, 0.0, 0.0, 0.0, 1.7976931348623157e+308, 0.0, 0.0, 0.0, 0.05)",0.0,0.0,0.0,"(0.0, 0.0, 0.0, 0.0, 0.0, 0.0, 0.0, 0.0, 0.0)"
2019/10/07/19:05:05.100808,150,1570442705,100208731,gyro_link,0.0,0.0,-0.876726755708,0.480988768919,"(1.7976931348623157e+308, 0.0, 0.0, 0.0, 1.7976931348623157e+308, 0.0, 0.0, 0.0, 0.05)",0.0,0.0,-0.00942477796077,"(1.7976931348623157e+308, 0.0, 0.0, 0.0, 1.7976931348623157e+308, 0.0, 0.0, 0.0, 0.05)",0.0,0.0,0.0,"(0.0, 0.0, 0.0, 0.0, 0.0, 0.0, 0.0, 0.0, 0.0)"
2019/10/07/19:05:05.158583,151,1570442705,158048960,gyro_link,0.0,0.0,-0.87710425296,0.480300041057,"(1.7976931348623157e+308, 0.0, 0.0, 0.0, 1.7976931348623157e+308, 0.0, 0.0, 0.0, 0.05)",0.0,0.0,-0.0174532925199,"(1.7976931348623157e+308, 0.0, 0.0, 0.0, 1.7976931348623157e+308, 0.0, 0.0, 0.0, 0.05)",0.0,0.0,0.0,"(0.0, 0.0, 0.0, 0.0, 0.0, 0.0, 0.0, 0.0, 0.0)"
2019/10/07/19:05:05.180421,152,1570442705,179975986,gyro_link,0.0,0.0,-0.877062335535,0.480376581014,"(1.7976931348623157e+308, 0.0, 0.0, 0.0, 1.7976931348623157e+308, 0.0, 0.0, 0.0, 0.05)",0.0,0.0,0.0150098315672,"(1.7976931348623157e+308, 0.0, 0.0, 0.0, 1.7976931348623157e+308, 0.0, 0.0, 0.0, 0.05)",0.0,0.0,0.0,"(0.0, 0.0, 0.0, 0.0, 0.0, 0.0, 0.0, 0.0, 0.0)"
2019/10/07/19:05:05.238221,153,1570442705,237878712,gyro_link,0.0,0.0,-0.87735561723,0.479840724527,"(1.7976931348623157e+308, 0.0, 0.0, 0.0, 1.7976931348623157e+308, 0.0, 0.0, 0.0, 0.05)",0.0,0.0,-0.0343829862643,"(1.7976931348623157e+308, 0.0, 0.0, 0.0, 1.7976931348623157e+308, 0.0, 0.0, 0.0, 0.05)",0.0,0.0,0.0,"(0.0, 0.0, 0.0, 0.0, 0.0, 0.0, 0.0, 0.0, 0.0)"
2019/10/07/19:05:05.260566,154,1570442705,259990421,gyro_link,0.0,0.0,-0.877439351872,0.479687589777,"(1.7976931348623157e+308, 0.0, 0.0, 0.0, 1.7976931348623157e+308, 0.0, 0.0, 0.0, 0.05)",0.0,0.0,-0.00785398163397,"(1.7976931348623157e+308, 0.0, 0.0, 0.0, 1.7976931348623157e+308, 0.0, 0.0, 0.0, 0.05)",0.0,0.0,0.0,"(0.0, 0.0, 0.0, 0.0, 0.0, 0.0, 0.0, 0.0, 0.0)"
2019/10/07/19:05:05.320445,155,1570442705,319730532,gyro_link,0.0,0.0,-0.87735561723,0.479840724527,"(1.7976931348623157e+308, 0.0, 0.0, 0.0, 1.7976931348623157e+308, 0.0, 0.0, 0.0, 0.05)",0.0,0.0,-0.00959931088597,"(1.7976931348623157e+308, 0.0, 0.0, 0.0, 1.7976931348623157e+308, 0.0, 0.0, 0.0, 0.05)",0.0,0.0,0.0,"(0.0, 0.0, 0.0, 0.0, 0.0, 0.0, 0.0, 0.0, 0.0)"
2019/10/07/19:05:05.379908,156,1570442705,379484633,gyro_link,0.0,0.0,-0.877564903719,0.479457860256,"(1.7976931348623157e+308, 0.0, 0.0, 0.0, 1.7976931348623157e+308, 0.0, 0.0, 0.0, 0.05)",0.0,0.0,0.0190240888467,"(1.7976931348623157e+308, 0.0, 0.0, 0.0, 1.7976931348623157e+308, 0.0, 0.0, 0.0, 0.05)",0.0,0.0,0.0,"(0.0, 0.0, 0.0, 0.0, 0.0, 0.0, 0.0, 0.0, 0.0)"
2019/10/07/19:05:05.439784,157,1570442705,439356993,gyro_link,0.0,0.0,-0.877732212617,0.479151503112,"(1.7976931348623157e+308, 0.0, 0.0, 0.0, 1.7976931348623157e+308, 0.0, 0.0, 0.0, 0.05)",0.0,0.0,-0.0558505360638,"(1.7976931348623157e+308, 0.0, 0.0, 0.0, 1.7976931348623157e+308, 0.0, 0.0, 0.0, 0.05)",0.0,0.0,0.0,"(0.0, 0.0, 0.0, 0.0, 0.0, 0.0, 0.0, 0.0, 0.0)"
2019/10/07/19:05:05.499695,158,1570442705,499309901,gyro_link,0.0,0.0,-0.878108266574,0.478461986133,"(1.7976931348623157e+308, 0.0, 0.0, 0.0, 1.7976931348623157e+308, 0.0, 0.0, 0.0, 0.05)",0.0,0.0,0.0136135681656,"(1.7976931348623157e+308, 0.0, 0.0, 0.0, 1.7976931348623157e+308, 0.0, 0.0, 0.0, 0.05)",0.0,0.0,0.0,"(0.0, 0.0, 0.0, 0.0, 0.0, 0.0, 0.0, 0.0, 0.0)"
2019/10/07/19:05:05.559883,159,1570442705,559559936,gyro_link,0.0,0.0,-0.878316951403,0.478078793588,"(1.7976931348623157e+308, 0.0, 0.0, 0.0, 1.7976931348623157e+308, 0.0, 0.0, 0.0, 0.05)",0.0,0.0,-0.0157079632679,"(1.7976931348623157e+308, 0.0, 0.0, 0.0, 1.7976931348623157e+308, 0.0, 0.0, 0.0, 0.05)",0.0,0.0,0.0,"(0.0, 0.0, 0.0, 0.0, 0.0, 0.0, 0.0, 0.0, 0.0)"
2019/10/07/19:05:05.619712,160,1570442705,619208555,gyro_link,0.0,0.0,-0.878108266574,0.478461986133,"(1.7976931348623157e+308, 0.0, 0.0, 0.0, 1.7976931348623157e+308, 0.0, 0.0, 0.0, 0.05)",0.0,0.0,0.00750491578358,"(1.7976931348623157e+308, 0.0, 0.0, 0.0, 1.7976931348623157e+308, 0.0, 0.0, 0.0, 0.05)",0.0,0.0,0.0,"(0.0, 0.0, 0.0, 0.0, 0.0, 0.0, 0.0, 0.0, 0.0)"
2019/10/07/19:05:05.679762,161,1570442705,679190842,gyro_link,0.0,0.0,-0.878525469012,0.477695510024,"(1.7976931348623157e+308, 0.0, 0.0, 0.0, 1.7976931348623157e+308, 0.0, 0.0, 0.0, 0.05)",0.0,0.0,-0.00471238898038,"(1.7976931348623157e+308, 0.0, 0.0, 0.0, 1.7976931348623157e+308, 0.0, 0.0, 0.0, 0.05)",0.0,0.0,0.0,"(0.0, 0.0, 0.0, 0.0, 0.0, 0.0, 0.0, 0.0, 0.0)"
2019/10/07/19:05:05.739527,162,1570442705,739069668,gyro_link,0.0,0.0,-0.878358668303,0.478002144155,"(1.7976931348623157e+308, 0.0, 0.0, 0.0, 1.7976931348623157e+308, 0.0, 0.0, 0.0, 0.05)",0.0,0.0,-0.0165806278939,"(1.7976931348623157e+308, 0.0, 0.0, 0.0, 1.7976931348623157e+308, 0.0, 0.0, 0.0, 0.05)",0.0,0.0,0.0,"(0.0, 0.0, 0.0, 0.0, 0.0, 0.0, 0.0, 0.0, 0.0)"
2019/10/07/19:05:05.799554,163,1570442705,799269202,gyro_link,0.0,0.0,-0.878442082037,0.477848834367,"(1.7976931348623157e+308, 0.0, 0.0, 0.0, 1.7976931348623157e+308, 0.0, 0.0, 0.0, 0.05)",0.0,0.0,0.0169296937443,"(1.7976931348623157e+308, 0.0, 0.0, 0.0, 1.7976931348623157e+308, 0.0, 0.0, 0.0, 0.05)",0.0,0.0,0.0,"(0.0, 0.0, 0.0, 0.0, 0.0, 0.0, 0.0, 0.0, 0.0)"
2019/10/07/19:05:05.859426,164,1570442705,858963046,gyro_link,0.0,0.0,-0.878692162675,0.477388817687,"(1.7976931348623157e+308, 0.0, 0.0, 0.0, 1.7976931348623157e+308, 0.0, 0.0, 0.0, 0.05)",0.0,0.0,-0.0408407044967,"(1.7976931348623157e+308, 0.0, 0.0, 0.0, 1.7976931348623157e+308, 0.0, 0.0, 0.0, 0.05)",0.0,0.0,0.0,"(0.0, 0.0, 0.0, 0.0, 0.0, 0.0, 0.0, 0.0, 0.0)"
2019/10/07/19:05:05.919027,165,1570442705,918656293,gyro_link,0.0,0.0,-0.878775469359,0.477235449703,"(1.7976931348623157e+308, 0.0, 0.0, 0.0, 1.7976931348623157e+308, 0.0, 0.0, 0.0, 0.05)",0.0,0.0,0.0237364778271,"(1.7976931348623157e+308, 0.0, 0.0, 0.0, 1.7976931348623157e+308, 0.0, 0.0, 0.0, 0.05)",0.0,0.0,0.0,"(0.0, 0.0, 0.0, 0.0, 0.0, 0.0, 0.0, 0.0, 0.0)"
2019/10/07/19:05:05.979092,166,1570442705,978641063,gyro_link,0.0,0.0,-0.879066831927,0.476698547309,"(1.7976931348623157e+308, 0.0, 0.0, 0.0, 1.7976931348623157e+308, 0.0, 0.0, 0.0, 0.05)",0.0,0.0,-0.0432841654495,"(1.7976931348623157e+308, 0.0, 0.0, 0.0, 1.7976931348623157e+308, 0.0, 0.0, 0.0, 0.05)",0.0,0.0,0.0,"(0.0, 0.0, 0.0, 0.0, 0.0, 0.0, 0.0, 0.0, 0.0)"
2019/10/07/19:05:06.038978,167,1570442706,38408672,gyro_link,0.0,0.0,-0.879066831927,0.476698547309,"(1.7976931348623157e+308, 0.0, 0.0, 0.0, 1.7976931348623157e+308, 0.0, 0.0, 0.0, 0.05)",0.0,0.0,-0.0146607657168,"(1.7976931348623157e+308, 0.0, 0.0, 0.0, 1.7976931348623157e+308, 0.0, 0.0, 0.0, 0.05)",0.0,0.0,0.0,"(0.0, 0.0, 0.0, 0.0, 0.0, 0.0, 0.0, 0.0, 0.0)"
2019/10/07/19:05:06.099057,168,1570442706,98561396,gyro_link,0.0,0.0,-0.879440958926,0.476007982878,"(1.7976931348623157e+308, 0.0, 0.0, 0.0, 1.7976931348623157e+308, 0.0, 0.0, 0.0, 0.05)",0.0,0.0,-0.00767944870878,"(1.7976931348623157e+308, 0.0, 0.0, 0.0, 1.7976931348623157e+308, 0.0, 0.0, 0.0, 0.05)",0.0,0.0,0.0,"(0.0, 0.0, 0.0, 0.0, 0.0, 0.0, 0.0, 0.0, 0.0)"
2019/10/07/19:05:06.158657,169,1570442706,158156407,gyro_link,0.0,0.0,-0.879399416044,0.476084726767,"(1.7976931348623157e+308, 0.0, 0.0, 0.0, 1.7976931348623157e+308, 0.0, 0.0, 0.0, 0.05)",0.0,0.0,-0.0186750229963,"(1.7976931348623157e+308, 0.0, 0.0, 0.0, 1.7976931348623157e+308, 0.0, 0.0, 0.0, 0.05)",0.0,0.0,0.0,"(0.0, 0.0, 0.0, 0.0, 0.0, 0.0, 0.0, 0.0, 0.0)"
2019/10/07/19:05:06.217565,170,1570442706,216981246,gyro_link,0.0,0.0,-0.879440958926,0.476007982878,"(1.7976931348623157e+308, 0.0, 0.0, 0.0, 1.7976931348623157e+308, 0.0, 0.0, 0.0, 0.05)",0.0,0.0,0.0162315620435,"(1.7976931348623157e+308, 0.0, 0.0, 0.0, 1.7976931348623157e+308, 0.0, 0.0, 0.0, 0.05)",0.0,0.0,0.0,"(0.0, 0.0, 0.0, 0.0, 0.0, 0.0, 0.0, 0.0, 0.0)"
2019/10/07/19:05:06.275463,171,1570442706,274950082,gyro_link,0.0,0.0,-0.879690075559,0.47554744344,"(1.7976931348623157e+308, 0.0, 0.0, 0.0, 1.7976931348623157e+308, 0.0, 0.0, 0.0, 0.05)",0.0,0.0,-0.0417133691227,"(1.7976931348623157e+308, 0.0, 0.0, 0.0, 1.7976931348623157e+308, 0.0, 0.0, 0.0, 0.05)",0.0,0.0,0.0,"(0.0, 0.0, 0.0, 0.0, 0.0, 0.0, 0.0, 0.0, 0.0)"
2019/10/07/19:05:06.298504,172,1570442706,298041719,gyro_link,0.0,0.0,-0.879773060847,0.475393901316,"(1.7976931348623157e+308, 0.0, 0.0, 0.0, 1.7976931348623157e+308, 0.0, 0.0, 0.0, 0.05)",0.0,0.0,-0.0137881010908,"(1.7976931348623157e+308, 0.0, 0.0, 0.0, 1.7976931348623157e+308, 0.0, 0.0, 0.0, 0.05)",0.0,0.0,0.0,"(0.0, 0.0, 0.0, 0.0, 0.0, 0.0, 0.0, 0.0, 0.0)"
2019/10/07/19:05:06.357049,173,1570442706,356689326,gyro_link,0.0,0.0,-0.879814543441,0.475317124823,"(1.7976931348623157e+308, 0.0, 0.0, 0.0, 1.7976931348623157e+308, 0.0, 0.0, 0.0, 0.05)",0.0,0.0,0.00296705972839,"(1.7976931348623157e+308, 0.0, 0.0, 0.0, 1.7976931348623157e+308, 0.0, 0.0, 0.0, 0.05)",0.0,0.0,0.0,"(0.0, 0.0, 0.0, 0.0, 0.0, 0.0, 0.0, 0.0, 0.0)"
2019/10/07/19:05:06.415275,174,1570442706,414653929,gyro_link,0.0,0.0,-0.879690075559,0.47554744344,"(1.7976931348623157e+308, 0.0, 0.0, 0.0, 1.7976931348623157e+308, 0.0, 0.0, 0.0, 0.05)",0.0,0.0,0.00890117918517,"(1.7976931348623157e+308, 0.0, 0.0, 0.0, 1.7976931348623157e+308, 0.0, 0.0, 0.0, 0.05)",0.0,0.0,0.0,"(0.0, 0.0, 0.0, 0.0, 0.0, 0.0, 0.0, 0.0, 0.0)"
2019/10/07/19:05:06.437069,175,1570442706,436682146,gyro_link,0.0,0.0,-0.879690075559,0.47554744344,"(1.7976931348623157e+308, 0.0, 0.0, 0.0, 1.7976931348623157e+308, 0.0, 0.0, 0.0, 0.05)",0.0,0.0,-0.000349065850399,"(1.7976931348623157e+308, 0.0, 0.0, 0.0, 1.7976931348623157e+308, 0.0, 0.0, 0.0, 0.05)",0.0,0.0,0.0,"(0.0, 0.0, 0.0, 0.0, 0.0, 0.0, 0.0, 0.0, 0.0)"
2019/10/07/19:05:06.494980,176,1570442706,494486459,gyro_link,0.0,0.0,-0.880146162961,0.474702782617,"(1.7976931348623157e+308, 0.0, 0.0, 0.0, 1.7976931348623157e+308, 0.0, 0.0, 0.0, 0.05)",0.0,0.0,-0.0380481776935,"(1.7976931348623157e+308, 0.0, 0.0, 0.0, 1.7976931348623157e+308, 0.0, 0.0, 0.0, 0.05)",0.0,0.0,0.0,"(0.0, 0.0, 0.0, 0.0, 0.0, 0.0, 0.0, 0.0, 0.0)"
2019/10/07/19:05:06.516755,177,1570442706,516432529,gyro_link,0.0,0.0,-0.880229000821,0.474549160903,"(1.7976931348623157e+308, 0.0, 0.0, 0.0, 1.7976931348623157e+308, 0.0, 0.0, 0.0, 0.05)",0.0,0.0,-0.00593411945678,"(1.7976931348623157e+308, 0.0, 0.0, 0.0, 1.7976931348623157e+308, 0.0, 0.0, 0.0, 0.05)",0.0,0.0,0.0,"(0.0, 0.0, 0.0, 0.0, 0.0, 0.0, 0.0, 0.0, 0.0)"
2019/10/07/19:05:06.574892,178,1570442706,574366891,gyro_link,0.0,0.0,-0.880229000821,0.474549160903,"(1.7976931348623157e+308, 0.0, 0.0, 0.0, 1.7976931348623157e+308, 0.0, 0.0, 0.0, 0.05)",0.0,0.0,0.00820304748437,"(1.7976931348623157e+308, 0.0, 0.0, 0.0, 1.7976931348623157e+308, 0.0, 0.0, 0.0, 0.05)",0.0,0.0,0.0,"(0.0, 0.0, 0.0, 0.0, 0.0, 0.0, 0.0, 0.0, 0.0)"
2019/10/07/19:05:06.596783,179,1570442706,596428679,gyro_link,0.0,0.0,-0.880187585243,0.474625973567,"(1.7976931348623157e+308, 0.0, 0.0, 0.0, 1.7976931348623157e+308, 0.0, 0.0, 0.0, 0.05)",0.0,0.0,0.00541052068118,"(1.7976931348623157e+308, 0.0, 0.0, 0.0, 1.7976931348623157e+308, 0.0, 0.0, 0.0, 0.05)",0.0,0.0,0.0,"(0.0, 0.0, 0.0, 0.0, 0.0, 0.0, 0.0, 0.0, 0.0)"
2019/10/07/19:05:06.654487,180,1570442706,653970872,gyro_link,0.0,0.0,-0.880229000821,0.474549160903,"(1.7976931348623157e+308, 0.0, 0.0, 0.0, 1.7976931348623157e+308, 0.0, 0.0, 0.0, 0.05)",0.0,0.0,-0.0178023583703,"(1.7976931348623157e+308, 0.0, 0.0, 0.0, 1.7976931348623157e+308, 0.0, 0.0, 0.0, 0.05)",0.0,0.0,0.0,"(0.0, 0.0, 0.0, 0.0, 0.0, 0.0, 0.0, 0.0, 0.0)"
2019/10/07/19:05:06.676566,181,1570442706,676190095,gyro_link,0.0,0.0,-0.880311811867,0.474395524734,"(1.7976931348623157e+308, 0.0, 0.0, 0.0, 1.7976931348623157e+308, 0.0, 0.0, 0.0, 0.05)",0.0,0.0,-0.0212930168743,"(1.7976931348623157e+308, 0.0, 0.0, 0.0, 1.7976931348623157e+308, 0.0, 0.0, 0.0, 0.05)",0.0,0.0,0.0,"(0.0, 0.0, 0.0, 0.0, 0.0, 0.0, 0.0, 0.0, 0.0)"
2019/10/07/19:05:06.736629,182,1570442706,735983086,gyro_link,0.0,0.0,-0.880518722157,0.474011371098,"(1.7976931348623157e+308, 0.0, 0.0, 0.0, 1.7976931348623157e+308, 0.0, 0.0, 0.0, 0.05)",0.0,0.0,-0.00698131700798,"(1.7976931348623157e+308, 0.0, 0.0, 0.0, 1.7976931348623157e+308, 0.0, 0.0, 0.0, 0.05)",0.0,0.0,0.0,"(0.0, 0.0, 0.0, 0.0, 0.0, 0.0, 0.0, 0.0, 0.0)"
2019/10/07/19:05:06.794317,183,1570442706,793895847,gyro_link,0.0,0.0,-0.8805600841,0.473934529539,"(1.7976931348623157e+308, 0.0, 0.0, 0.0, 1.7976931348623157e+308, 0.0, 0.0, 0.0, 0.05)",0.0,0.0,0.00157079632679,"(1.7976931348623157e+308, 0.0, 0.0, 0.0, 1.7976931348623157e+308, 0.0, 0.0, 0.0, 0.05)",0.0,0.0,0.0,"(0.0, 0.0, 0.0, 0.0, 0.0, 0.0, 0.0, 0.0, 0.0)"
2019/10/07/19:05:06.816807,184,1570442706,815877722,gyro_link,0.0,0.0,-0.880518722157,0.474011371098,"(1.7976931348623157e+308, 0.0, 0.0, 0.0, 1.7976931348623157e+308, 0.0, 0.0, 0.0, 0.05)",0.0,0.0,0.00157079632679,"(1.7976931348623157e+308, 0.0, 0.0, 0.0, 1.7976931348623157e+308, 0.0, 0.0, 0.0, 0.05)",0.0,0.0,0.0,"(0.0, 0.0, 0.0, 0.0, 0.0, 0.0, 0.0, 0.0, 0.0)"
2019/10/07/19:05:06.873426,185,1570442706,873255967,gyro_link,0.0,0.0,-0.88072546481,0.473627127217,"(1.7976931348623157e+308, 0.0, 0.0, 0.0, 1.7976931348623157e+308, 0.0, 0.0, 0.0, 0.05)",0.0,0.0,-0.0012217304764,"(1.7976931348623157e+308, 0.0, 0.0, 0.0, 1.7976931348623157e+308, 0.0, 0.0, 0.0, 0.05)",0.0,0.0,0.0,"(0.0, 0.0, 0.0, 0.0, 0.0, 0.0, 0.0, 0.0, 0.0)"
2019/10/07/19:05:06.895603,186,1570442706,895363002,gyro_link,0.0,0.0,-0.880684129692,0.473703983209,"(1.7976931348623157e+308, 0.0, 0.0, 0.0, 1.7976931348623157e+308, 0.0, 0.0, 0.0, 0.05)",0.0,0.0,0.00157079632679,"(1.7976931348623157e+308, 0.0, 0.0, 0.0, 1.7976931348623157e+308, 0.0, 0.0, 0.0, 0.05)",0.0,0.0,0.0,"(0.0, 0.0, 0.0, 0.0, 0.0, 0.0, 0.0, 0.0, 0.0)"
2019/10/07/19:05:06.955836,187,1570442706,955456023,gyro_link,0.0,0.0,-0.88072546481,0.473627127217,"(1.7976931348623157e+308, 0.0, 0.0, 0.0, 1.7976931348623157e+308, 0.0, 0.0, 0.0, 0.05)",0.0,0.0,0.00209439510239,"(1.7976931348623157e+308, 0.0, 0.0, 0.0, 1.7976931348623157e+308, 0.0, 0.0, 0.0, 0.05)",0.0,0.0,0.0,"(0.0, 0.0, 0.0, 0.0, 0.0, 0.0, 0.0, 0.0, 0.0)"
2019/10/07/19:05:07.015881,188,1570442707,15446045,gyro_link,0.0,0.0,-0.880849429918,0.473396537601,"(1.7976931348623157e+308, 0.0, 0.0, 0.0, 1.7976931348623157e+308, 0.0, 0.0, 0.0, 0.05)",0.0,0.0,-0.0183259571459,"(1.7976931348623157e+308, 0.0, 0.0, 0.0, 1.7976931348623157e+308, 0.0, 0.0, 0.0, 0.05)",0.0,0.0,0.0,"(0.0, 0.0, 0.0, 0.0, 0.0, 0.0, 0.0, 0.0, 0.0)"
2019/10/07/19:05:07.076246,189,1570442707,75561248,gyro_link,0.0,0.0,-0.881179708364,0.472781473377,"(1.7976931348623157e+308, 0.0, 0.0, 0.0, 1.7976931348623157e+308, 0.0, 0.0, 0.0, 0.05)",0.0,0.0,-0.00750491578358,"(1.7976931348623157e+308, 0.0, 0.0, 0.0, 1.7976931348623157e+308, 0.0, 0.0, 0.0, 0.05)",0.0,0.0,0.0,"(0.0, 0.0, 0.0, 0.0, 0.0, 0.0, 0.0, 0.0, 0.0)"
2019/10/07/19:05:07.135804,190,1570442707,135328200,gyro_link,0.0,0.0,-0.881055904267,0.47301214948,"(1.7976931348623157e+308, 0.0, 0.0, 0.0, 1.7976931348623157e+308, 0.0, 0.0, 0.0, 0.05)",0.0,0.0,-0.00488692190558,"(1.7976931348623157e+308, 0.0, 0.0, 0.0, 1.7976931348623157e+308, 0.0, 0.0, 0.0, 0.05)",0.0,0.0,0.0,"(0.0, 0.0, 0.0, 0.0, 0.0, 0.0, 0.0, 0.0, 0.0)"
2019/10/07/19:05:07.196009,191,1570442707,195279897,gyro_link,0.0,0.0,-0.881097179009,0.472935261047,"(1.7976931348623157e+308, 0.0, 0.0, 0.0, 1.7976931348623157e+308, 0.0, 0.0, 0.0, 0.05)",0.0,0.0,0.00977384381117,"(1.7976931348623157e+308, 0.0, 0.0, 0.0, 1.7976931348623157e+308, 0.0, 0.0, 0.0, 0.05)",0.0,0.0,0.0,"(0.0, 0.0, 0.0, 0.0, 0.0, 0.0, 0.0, 0.0, 0.0)"
2019/10/07/19:05:07.255918,192,1570442707,255235840,gyro_link,0.0,0.0,-0.881179708364,0.472781473377,"(1.7976931348623157e+308, 0.0, 0.0, 0.0, 1.7976931348623157e+308, 0.0, 0.0, 0.0, 0.05)",0.0,0.0,-0.00837758040957,"(1.7976931348623157e+308, 0.0, 0.0, 0.0, 1.7976931348623157e+308, 0.0, 0.0, 0.0, 0.05)",0.0,0.0,0.0,"(0.0, 0.0, 0.0, 0.0, 0.0, 0.0, 0.0, 0.0, 0.0)"
2019/10/07/19:05:07.315755,193,1570442707,315161406,gyro_link,0.0,0.0,-0.881097179009,0.472935261047,"(1.7976931348623157e+308, 0.0, 0.0, 0.0, 1.7976931348623157e+308, 0.0, 0.0, 0.0, 0.05)",0.0,0.0,0.00750491578358,"(1.7976931348623157e+308, 0.0, 0.0, 0.0, 1.7976931348623157e+308, 0.0, 0.0, 0.0, 0.05)",0.0,0.0,0.0,"(0.0, 0.0, 0.0, 0.0, 0.0, 0.0, 0.0, 0.0, 0.0)"
2019/10/07/19:05:07.375349,194,1570442707,375025295,gyro_link,0.0,0.0,-0.881633139939,0.471935383883,"(1.7976931348623157e+308, 0.0, 0.0, 0.0, 1.7976931348623157e+308, 0.0, 0.0, 0.0, 0.05)",0.0,0.0,-0.0284488668075,"(1.7976931348623157e+308, 0.0, 0.0, 0.0, 1.7976931348623157e+308, 0.0, 0.0, 0.0, 0.05)",0.0,0.0,0.0,"(0.0, 0.0, 0.0, 0.0, 0.0, 0.0, 0.0, 0.0, 0.0)"
2019/10/07/19:05:07.435181,195,1570442707,434945904,gyro_link,0.0,0.0,-0.881674320714,0.471858445081,"(1.7976931348623157e+308, 0.0, 0.0, 0.0, 1.7976931348623157e+308, 0.0, 0.0, 0.0, 0.05)",0.0,0.0,-0.00767944870878,"(1.7976931348623157e+308, 0.0, 0.0, 0.0, 1.7976931348623157e+308, 0.0, 0.0, 0.0, 0.05)",0.0,0.0,0.0,"(0.0, 0.0, 0.0, 0.0, 0.0, 0.0, 0.0, 0.0, 0.0)"
2019/10/07/19:05:07.495396,196,1570442707,495038156,gyro_link,0.0,0.0,-0.881591952451,0.472012319092,"(1.7976931348623157e+308, 0.0, 0.0, 0.0, 1.7976931348623157e+308, 0.0, 0.0, 0.0, 0.05)",0.0,0.0,0.0146607657168,"(1.7976931348623157e+308, 0.0, 0.0, 0.0, 1.7976931348623157e+308, 0.0, 0.0, 0.0, 0.05)",0.0,0.0,0.0,"(0.0, 0.0, 0.0, 0.0, 0.0, 0.0, 0.0, 0.0, 0.0)"
2019/10/07/19:05:07.554105,197,1570442707,553652903,gyro_link,0.0,0.0,-0.881838976665,0.471550653943,"(1.7976931348623157e+308, 0.0, 0.0, 0.0, 1.7976931348623157e+308, 0.0, 0.0, 0.0, 0.05)",0.0,0.0,-0.0418879020479,"(1.7976931348623157e+308, 0.0, 0.0, 0.0, 1.7976931348623157e+308, 0.0, 0.0, 0.0, 0.05)",0.0,0.0,0.0,"(0.0, 0.0, 0.0, 0.0, 0.0, 0.0, 0.0, 0.0, 0.0)"
2019/10/07/19:05:07.575625,198,1570442707,574963849,gyro_link,0.0,0.0,-0.882044645501,0.471165834227,"(1.7976931348623157e+308, 0.0, 0.0, 0.0, 1.7976931348623157e+308, 0.0, 0.0, 0.0, 0.05)",0.0,0.0,-0.0260054058547,"(1.7976931348623157e+308, 0.0, 0.0, 0.0, 1.7976931348623157e+308, 0.0, 0.0, 0.0, 0.05)",0.0,0.0,0.0,"(0.0, 0.0, 0.0, 0.0, 0.0, 0.0, 0.0, 0.0, 0.0)"
2019/10/07/19:05:07.633911,199,1570442707,633458440,gyro_link,0.0,0.0,-0.881962398116,0.471319772882,"(1.7976931348623157e+308, 0.0, 0.0, 0.0, 1.7976931348623157e+308, 0.0, 0.0, 0.0, 0.05)",0.0,0.0,-0.00453785605519,"(1.7976931348623157e+308, 0.0, 0.0, 0.0, 1.7976931348623157e+308, 0.0, 0.0, 0.0, 0.05)",0.0,0.0,0.0,"(0.0, 0.0, 0.0, 0.0, 0.0, 0.0, 0.0, 0.0, 0.0)"
2019/10/07/19:05:07.691928,200,1570442707,691293443,gyro_link,0.0,0.0,-0.882209059663,0.470857913864,"(1.7976931348623157e+308, 0.0, 0.0, 0.0, 1.7976931348623157e+308, 0.0, 0.0, 0.0, 0.05)",0.0,0.0,0.00977384381117,"(1.7976931348623157e+308, 0.0, 0.0, 0.0, 1.7976931348623157e+308, 0.0, 0.0, 0.0, 0.05)",0.0,0.0,0.0,"(0.0, 0.0, 0.0, 0.0, 0.0, 0.0, 0.0, 0.0, 0.0)"
2019/10/07/19:05:07.714792,201,1570442707,714344324,gyro_link,0.0,0.0,-0.882167966199,0.470934899335,"(1.7976931348623157e+308, 0.0, 0.0, 0.0, 1.7976931348623157e+308, 0.0, 0.0, 0.0, 0.05)",0.0,0.0,0.0109955742876,"(1.7976931348623157e+308, 0.0, 0.0, 0.0, 1.7976931348623157e+308, 0.0, 0.0, 0.0, 0.05)",0.0,0.0,0.0,"(0.0, 0.0, 0.0, 0.0, 0.0, 0.0, 0.0, 0.0, 0.0)"
2019/10/07/19:05:07.774157,202,1570442707,773505341,gyro_link,0.0,0.0,-0.882537565484,0.470241901057,"(1.7976931348623157e+308, 0.0, 0.0, 0.0, 1.7976931348623157e+308, 0.0, 0.0, 0.0, 0.05)",0.0,0.0,-0.0205948851735,"(1.7976931348623157e+308, 0.0, 0.0, 0.0, 1.7976931348623157e+308, 0.0, 0.0, 0.0, 0.05)",0.0,0.0,0.0,"(0.0, 0.0, 0.0, 0.0, 0.0, 0.0, 0.0, 0.0, 0.0)"
2019/10/07/19:05:07.831758,203,1570442707,831054255,gyro_link,0.0,0.0,-0.882209059663,0.470857913864,"(1.7976931348623157e+308, 0.0, 0.0, 0.0, 1.7976931348623157e+308, 0.0, 0.0, 0.0, 0.05)",0.0,0.0,-0.00191986217719,"(1.7976931348623157e+308, 0.0, 0.0, 0.0, 1.7976931348623157e+308, 0.0, 0.0, 0.0, 0.05)",0.0,0.0,0.0,"(0.0, 0.0, 0.0, 0.0, 0.0, 0.0, 0.0, 0.0, 0.0)"
2019/10/07/19:05:07.853253,204,1570442707,852969822,gyro_link,0.0,0.0,-0.882373366331,0.470549936128,"(1.7976931348623157e+308, 0.0, 0.0, 0.0, 1.7976931348623157e+308, 0.0, 0.0, 0.0, 0.05)",0.0,0.0,-0.0467748239534,"(1.7976931348623157e+308, 0.0, 0.0, 0.0, 1.7976931348623157e+308, 0.0, 0.0, 0.0, 0.05)",0.0,0.0,0.0,"(0.0, 0.0, 0.0, 0.0, 0.0, 0.0, 0.0, 0.0, 0.0)"
2019/10/07/19:05:07.911656,205,1570442707,911172068,gyro_link,0.0,0.0,-0.882824655234,0.469702701834,"(1.7976931348623157e+308, 0.0, 0.0, 0.0, 1.7976931348623157e+308, 0.0, 0.0, 0.0, 0.05)",0.0,0.0,-0.00890117918517,"(1.7976931348623157e+308, 0.0, 0.0, 0.0, 1.7976931348623157e+308, 0.0, 0.0, 0.0, 0.05)",0.0,0.0,0.0,"(0.0, 0.0, 0.0, 0.0, 0.0, 0.0, 0.0, 0.0, 0.0)"
2019/10/07/19:05:07.933439,206,1570442707,932789991,gyro_link,0.0,0.0,-0.882947592859,0.469471562786,"(1.7976931348623157e+308, 0.0, 0.0, 0.0, 1.7976931348623157e+308, 0.0, 0.0, 0.0, 0.05)",0.0,0.0,-0.0373500459927,"(1.7976931348623157e+308, 0.0, 0.0, 0.0, 1.7976931348623157e+308, 0.0, 0.0, 0.0, 0.05)",0.0,0.0,0.0,"(0.0, 0.0, 0.0, 0.0, 0.0, 0.0, 0.0, 0.0, 0.0)"
2019/10/07/19:05:07.990957,207,1570442707,990629921,gyro_link,0.0,0.0,-0.88323421196,0.468932113235,"(1.7976931348623157e+308, 0.0, 0.0, 0.0, 1.7976931348623157e+308, 0.0, 0.0, 0.0, 0.05)",0.0,0.0,0.00872664625997,"(1.7976931348623157e+308, 0.0, 0.0, 0.0, 1.7976931348623157e+308, 0.0, 0.0, 0.0, 0.05)",0.0,0.0,0.0,"(0.0, 0.0, 0.0, 0.0, 0.0, 0.0, 0.0, 0.0, 0.0)"
2019/10/07/19:05:08.013066,208,1570442708,12659337,gyro_link,0.0,0.0,-0.883070469967,0.469240391561,"(1.7976931348623157e+308, 0.0, 0.0, 0.0, 1.7976931348623157e+308, 0.0, 0.0, 0.0, 0.05)",0.0,0.0,0.0356047167407,"(1.7976931348623157e+308, 0.0, 0.0, 0.0, 1.7976931348623157e+308, 0.0, 0.0, 0.0, 0.05)",0.0,0.0,0.0,"(0.0, 0.0, 0.0, 0.0, 0.0, 0.0, 0.0, 0.0, 0.0)"
2019/10/07/19:05:08.071090,209,1570442708,70611772,gyro_link,0.0,0.0,-0.88323421196,0.468932113235,"(1.7976931348623157e+308, 0.0, 0.0, 0.0, 1.7976931348623157e+308, 0.0, 0.0, 0.0, 0.05)",0.0,0.0,-0.0345575191895,"(1.7976931348623157e+308, 0.0, 0.0, 0.0, 1.7976931348623157e+308, 0.0, 0.0, 0.0, 0.05)",0.0,0.0,0.0,"(0.0, 0.0, 0.0, 0.0, 0.0, 0.0, 0.0, 0.0, 0.0)"
2019/10/07/19:05:08.092915,210,1570442708,92574850,gyro_link,0.0,0.0,-0.883316042601,0.468777952643,"(1.7976931348623157e+308, 0.0, 0.0, 0.0, 1.7976931348623157e+308, 0.0, 0.0, 0.0, 0.05)",0.0,0.0,-0.00994837673637,"(1.7976931348623157e+308, 0.0, 0.0, 0.0, 1.7976931348623157e+308, 0.0, 0.0, 0.0, 0.05)",0.0,0.0,0.0,"(0.0, 0.0, 0.0, 0.0, 0.0, 0.0, 0.0, 0.0, 0.0)"
2019/10/07/19:05:08.152872,211,1570442708,152271358,gyro_link,0.0,0.0,-0.883561373069,0.468315385206,"(1.7976931348623157e+308, 0.0, 0.0, 0.0, 1.7976931348623157e+308, 0.0, 0.0, 0.0, 0.05)",0.0,0.0,-0.0593411945678,"(1.7976931348623157e+308, 0.0, 0.0, 0.0, 1.7976931348623157e+308, 0.0, 0.0, 0.0, 0.05)",0.0,0.0,0.0,"(0.0, 0.0, 0.0, 0.0, 0.0, 0.0, 0.0, 0.0, 0.0)"
2019/10/07/19:05:08.210788,212,1570442708,210186595,gyro_link,0.0,0.0,-0.883602237931,0.468238278148,"(1.7976931348623157e+308, 0.0, 0.0, 0.0, 1.7976931348623157e+308, 0.0, 0.0, 0.0, 0.05)",0.0,0.0,0.0375245789179,"(1.7976931348623157e+308, 0.0, 0.0, 0.0, 1.7976931348623157e+308, 0.0, 0.0, 0.0, 0.05)",0.0,0.0,0.0,"(0.0, 0.0, 0.0, 0.0, 0.0, 0.0, 0.0, 0.0, 0.0)"
2019/10/07/19:05:08.232644,213,1570442708,232225465,gyro_link,0.0,0.0,-0.883520501477,0.468392488698,"(1.7976931348623157e+308, 0.0, 0.0, 0.0, 1.7976931348623157e+308, 0.0, 0.0, 0.0, 0.05)",0.0,0.0,0.0127409035396,"(1.7976931348623157e+308, 0.0, 0.0, 0.0, 1.7976931348623157e+308, 0.0, 0.0, 0.0, 0.05)",0.0,0.0,0.0,"(0.0, 0.0, 0.0, 0.0, 0.0, 0.0, 0.0, 0.0, 0.0)"
2019/10/07/19:05:08.290692,214,1570442708,290303579,gyro_link,0.0,0.0,-0.883806461303,0.467852689379,"(1.7976931348623157e+308, 0.0, 0.0, 0.0, 1.7976931348623157e+308, 0.0, 0.0, 0.0, 0.05)",0.0,0.0,0.00383972435439,"(1.7976931348623157e+308, 0.0, 0.0, 0.0, 1.7976931348623157e+308, 0.0, 0.0, 0.0, 0.05)",0.0,0.0,0.0,"(0.0, 0.0, 0.0, 0.0, 0.0, 0.0, 0.0, 0.0, 0.0)"
2019/10/07/19:05:08.312608,215,1570442708,311948993,gyro_link,0.0,0.0,-0.883724792144,0.468006935579,"(1.7976931348623157e+308, 0.0, 0.0, 0.0, 1.7976931348623157e+308, 0.0, 0.0, 0.0, 0.05)",0.0,0.0,0.0256563400043,"(1.7976931348623157e+308, 0.0, 0.0, 0.0, 1.7976931348623157e+308, 0.0, 0.0, 0.0, 0.05)",0.0,0.0,0.0,"(0.0, 0.0, 0.0, 0.0, 0.0, 0.0, 0.0, 0.0, 0.0)"
2019/10/07/19:05:08.372395,216,1570442708,372074502,gyro_link,0.0,0.0,-0.884051307237,0.467389865287,"(1.7976931348623157e+308, 0.0, 0.0, 0.0, 1.7976931348623157e+308, 0.0, 0.0, 0.0, 0.05)",0.0,0.0,-0.067369709127,"(1.7976931348623157e+308, 0.0, 0.0, 0.0, 1.7976931348623157e+308, 0.0, 0.0, 0.0, 0.05)",0.0,0.0,0.0,"(0.0, 0.0, 0.0, 0.0, 0.0, 0.0, 0.0, 0.0, 0.0)"
2019/10/07/19:05:08.432321,217,1570442708,431920751,gyro_link,0.0,0.0,-0.88417363932,0.467158405181,"(1.7976931348623157e+308, 0.0, 0.0, 0.0, 1.7976931348623157e+308, 0.0, 0.0, 0.0, 0.05)",0.0,0.0,-0.000698131700798,"(1.7976931348623157e+308, 0.0, 0.0, 0.0, 1.7976931348623157e+308, 0.0, 0.0, 0.0, 0.05)",0.0,0.0,0.0,"(0.0, 0.0, 0.0, 0.0, 0.0, 0.0, 0.0, 0.0, 0.0)"
2019/10/07/19:05:08.492260,218,1570442708,491954963,gyro_link,0.0,0.0,-0.884662361566,0.466232244732,"(1.7976931348623157e+308, 0.0, 0.0, 0.0, 1.7976931348623157e+308, 0.0, 0.0, 0.0, 0.05)",0.0,0.0,-0.0141371669412,"(1.7976931348623157e+308, 0.0, 0.0, 0.0, 1.7976931348623157e+308, 0.0, 0.0, 0.0, 0.05)",0.0,0.0,0.0,"(0.0, 0.0, 0.0, 0.0, 0.0, 0.0, 0.0, 0.0, 0.0)"
2019/10/07/19:05:08.551914,219,1570442708,551610748,gyro_link,0.0,0.0,-0.884703044636,0.466155041602,"(1.7976931348623157e+308, 0.0, 0.0, 0.0, 1.7976931348623157e+308, 0.0, 0.0, 0.0, 0.05)",0.0,0.0,-0.0300196631343,"(1.7976931348623157e+308, 0.0, 0.0, 0.0, 1.7976931348623157e+308, 0.0, 0.0, 0.0, 0.05)",0.0,0.0,0.0,"(0.0, 0.0, 0.0, 0.0, 0.0, 0.0, 0.0, 0.0, 0.0)"
2019/10/07/19:05:08.611887,220,1570442708,611477511,gyro_link,0.0,0.0,-0.884662361566,0.466232244732,"(1.7976931348623157e+308, 0.0, 0.0, 0.0, 1.7976931348623157e+308, 0.0, 0.0, 0.0, 0.05)",0.0,0.0,0.0446804288511,"(1.7976931348623157e+308, 0.0, 0.0, 0.0, 1.7976931348623157e+308, 0.0, 0.0, 0.0, 0.05)",0.0,0.0,0.0,"(0.0, 0.0, 0.0, 0.0, 0.0, 0.0, 0.0, 0.0, 0.0)"
2019/10/07/19:05:08.671983,221,1570442708,671594024,gyro_link,0.0,0.0,-0.884987637463,0.465614520325,"(1.7976931348623157e+308, 0.0, 0.0, 0.0, 1.7976931348623157e+308, 0.0, 0.0, 0.0, 0.05)",0.0,0.0,-0.0520108117094,"(1.7976931348623157e+308, 0.0, 0.0, 0.0, 1.7976931348623157e+308, 0.0, 0.0, 0.0, 0.05)",0.0,0.0,0.0,"(0.0, 0.0, 0.0, 0.0, 0.0, 0.0, 0.0, 0.0, 0.0)"
2019/10/07/19:05:08.731993,222,1570442708,731548592,gyro_link,0.0,0.0,-0.884987637463,0.465614520325,"(1.7976931348623157e+308, 0.0, 0.0, 0.0, 1.7976931348623157e+308, 0.0, 0.0, 0.0, 0.05)",0.0,0.0,-0.000523598775598,"(1.7976931348623157e+308, 0.0, 0.0, 0.0, 1.7976931348623157e+308, 0.0, 0.0, 0.0, 0.05)",0.0,0.0,0.0,"(0.0, 0.0, 0.0, 0.0, 0.0, 0.0, 0.0, 0.0, 0.0)"
2019/10/07/19:05:08.792003,223,1570442708,791409376,gyro_link,0.0,0.0,-0.885353057262,0.464919309124,"(1.7976931348623157e+308, 0.0, 0.0, 0.0, 1.7976931348623157e+308, 0.0, 0.0, 0.0, 0.05)",0.0,0.0,0.00628318530718,"(1.7976931348623157e+308, 0.0, 0.0, 0.0, 1.7976931348623157e+308, 0.0, 0.0, 0.0, 0.05)",0.0,0.0,0.0,"(0.0, 0.0, 0.0, 0.0, 0.0, 0.0, 0.0, 0.0, 0.0)"
2019/10/07/19:05:08.851666,224,1570442708,851247191,gyro_link,0.0,0.0,-0.885190715873,0.465228327311,"(1.7976931348623157e+308, 0.0, 0.0, 0.0, 1.7976931348623157e+308, 0.0, 0.0, 0.0, 0.05)",0.0,0.0,-0.0233874119767,"(1.7976931348623157e+308, 0.0, 0.0, 0.0, 1.7976931348623157e+308, 0.0, 0.0, 0.0, 0.05)",0.0,0.0,0.0,"(0.0, 0.0, 0.0, 0.0, 0.0, 0.0, 0.0, 0.0, 0.0)"
2019/10/07/19:05:08.911629,225,1570442708,910975917,gyro_link,0.0,0.0,-0.885150113672,0.465305573002,"(1.7976931348623157e+308, 0.0, 0.0, 0.0, 1.7976931348623157e+308, 0.0, 0.0, 0.0, 0.05)",0.0,0.0,0.0176278254451,"(1.7976931348623157e+308, 0.0, 0.0, 0.0, 1.7976931348623157e+308, 0.0, 0.0, 0.0, 0.05)",0.0,0.0,0.0,"(0.0, 0.0, 0.0, 0.0, 0.0, 0.0, 0.0, 0.0, 0.0)"
2019/10/07/19:05:08.971672,226,1570442708,971117475,gyro_link,0.0,0.0,-0.88559636707,0.464455675639,"(1.7976931348623157e+308, 0.0, 0.0, 0.0, 1.7976931348623157e+308, 0.0, 0.0, 0.0, 0.05)",0.0,0.0,-0.0289724655831,"(1.7976931348623157e+308, 0.0, 0.0, 0.0, 1.7976931348623157e+308, 0.0, 0.0, 0.0, 0.05)",0.0,0.0,0.0,"(0.0, 0.0, 0.0, 0.0, 0.0, 0.0, 0.0, 0.0, 0.0)"
2019/10/07/19:05:09.030275,227,1570442709,29821665,gyro_link,0.0,0.0,-0.885312482028,0.464996568983,"(1.7976931348623157e+308, 0.0, 0.0, 0.0, 1.7976931348623157e+308, 0.0, 0.0, 0.0, 0.05)",0.0,0.0,0.0242600766027,"(1.7976931348623157e+308, 0.0, 0.0, 0.0, 1.7976931348623157e+308, 0.0, 0.0, 0.0, 0.05)",0.0,0.0,0.0,"(0.0, 0.0, 0.0, 0.0, 0.0, 0.0, 0.0, 0.0, 0.0)"
2019/10/07/19:05:09.088044,228,1570442709,87475627,gyro_link,0.0,0.0,-0.885353057262,0.464919309124,"(1.7976931348623157e+308, 0.0, 0.0, 0.0, 1.7976931348623157e+308, 0.0, 0.0, 0.0, 0.05)",0.0,0.0,0.0354301838155,"(1.7976931348623157e+308, 0.0, 0.0, 0.0, 1.7976931348623157e+308, 0.0, 0.0, 0.0, 0.05)",0.0,0.0,0.0,"(0.0, 0.0, 0.0, 0.0, 0.0, 0.0, 0.0, 0.0, 0.0)"
2019/10/07/19:05:09.111438,229,1570442709,111076919,gyro_link,0.0,0.0,-0.885190715873,0.465228327311,"(1.7976931348623157e+308, 0.0, 0.0, 0.0, 1.7976931348623157e+308, 0.0, 0.0, 0.0, 0.05)",0.0,0.0,0.0363028484415,"(1.7976931348623157e+308, 0.0, 0.0, 0.0, 1.7976931348623157e+308, 0.0, 0.0, 0.0, 0.05)",0.0,0.0,0.0,"(0.0, 0.0, 0.0, 0.0, 0.0, 0.0, 0.0, 0.0, 0.0)"
2019/10/07/19:05:09.169886,230,1570442709,169434957,gyro_link,0.0,0.0,-0.885515290774,0.464610234288,"(1.7976931348623157e+308, 0.0, 0.0, 0.0, 1.7976931348623157e+308, 0.0, 0.0, 0.0, 0.05)",0.0,0.0,-0.0504400153826,"(1.7976931348623157e+308, 0.0, 0.0, 0.0, 1.7976931348623157e+308, 0.0, 0.0, 0.0, 0.05)",0.0,0.0,0.0,"(0.0, 0.0, 0.0, 0.0, 0.0, 0.0, 0.0, 0.0, 0.0)"
2019/10/07/19:05:09.227568,231,1570442709,227204463,gyro_link,0.0,0.0,-0.885474742511,0.464687508306,"(1.7976931348623157e+308, 0.0, 0.0, 0.0, 1.7976931348623157e+308, 0.0, 0.0, 0.0, 0.05)",0.0,0.0,-0.000174532925199,"(1.7976931348623157e+308, 0.0, 0.0, 0.0, 1.7976931348623157e+308, 0.0, 0.0, 0.0, 0.05)",0.0,0.0,0.0,"(0.0, 0.0, 0.0, 0.0, 0.0, 0.0, 0.0, 0.0, 0.0)"
2019/10/07/19:05:09.249679,232,1570442709,249421545,gyro_link,0.0,0.0,-0.885555832294,0.464532956732,"(1.7976931348623157e+308, 0.0, 0.0, 0.0, 1.7976931348623157e+308, 0.0, 0.0, 0.0, 0.05)",0.0,0.0,-0.0219911485751,"(1.7976931348623157e+308, 0.0, 0.0, 0.0, 1.7976931348623157e+308, 0.0, 0.0, 0.0, 0.05)",0.0,0.0,0.0,"(0.0, 0.0, 0.0, 0.0, 0.0, 0.0, 0.0, 0.0, 0.0)"
2019/10/07/19:05:09.309869,233,1570442709,309389445,gyro_link,0.0,0.0,-0.88559636707,0.464455675639,"(1.7976931348623157e+308, 0.0, 0.0, 0.0, 1.7976931348623157e+308, 0.0, 0.0, 0.0, 0.05)",0.0,0.0,0.00767944870878,"(1.7976931348623157e+308, 0.0, 0.0, 0.0, 1.7976931348623157e+308, 0.0, 0.0, 0.0, 0.05)",0.0,0.0,0.0,"(0.0, 0.0, 0.0, 0.0, 0.0, 0.0, 0.0, 0.0, 0.0)"
2019/10/07/19:05:09.367508,234,1570442709,367207705,gyro_link,0.0,0.0,-0.88579893978,0.464069217127,"(1.7976931348623157e+308, 0.0, 0.0, 0.0, 1.7976931348623157e+308, 0.0, 0.0, 0.0, 0.05)",0.0,0.0,-0.00471238898038,"(1.7976931348623157e+308, 0.0, 0.0, 0.0, 1.7976931348623157e+308, 0.0, 0.0, 0.0, 0.05)",0.0,0.0,0.0,"(0.0, 0.0, 0.0, 0.0, 0.0, 0.0, 0.0, 0.0, 0.0)"
2019/10/07/19:05:09.389611,235,1570442709,388968006,gyro_link,0.0,0.0,-0.885717930931,0.464223811138,"(1.7976931348623157e+308, 0.0, 0.0, 0.0, 1.7976931348623157e+308, 0.0, 0.0, 0.0, 0.05)",0.0,0.0,0.0228638132011,"(1.7976931348623157e+308, 0.0, 0.0, 0.0, 1.7976931348623157e+308, 0.0, 0.0, 0.0, 0.05)",0.0,0.0,0.0,"(0.0, 0.0, 0.0, 0.0, 0.0, 0.0, 0.0, 0.0, 0.0)"
2019/10/07/19:05:09.449426,236,1570442709,449007933,gyro_link,0.0,0.0,-0.885839434086,0.46399191482,"(1.7976931348623157e+308, 0.0, 0.0, 0.0, 1.7976931348623157e+308, 0.0, 0.0, 0.0, 0.05)",0.0,0.0,-0.0352556508903,"(1.7976931348623157e+308, 0.0, 0.0, 0.0, 1.7976931348623157e+308, 0.0, 0.0, 0.0, 0.05)",0.0,0.0,0.0,"(0.0, 0.0, 0.0, 0.0, 0.0, 0.0, 0.0, 0.0, 0.0)"
2019/10/07/19:05:09.507157,237,1570442709,506929125,gyro_link,0.0,0.0,-0.885839434086,0.46399191482,"(1.7976931348623157e+308, 0.0, 0.0, 0.0, 1.7976931348623157e+308, 0.0, 0.0, 0.0, 0.05)",0.0,0.0,0.0127409035396,"(1.7976931348623157e+308, 0.0, 0.0, 0.0, 1.7976931348623157e+308, 0.0, 0.0, 0.0, 0.05)",0.0,0.0,0.0,"(0.0, 0.0, 0.0, 0.0, 0.0, 0.0, 0.0, 0.0, 0.0)"
2019/10/07/19:05:09.528947,238,1570442709,528732299,gyro_link,0.0,0.0,-0.885839434086,0.46399191482,"(1.7976931348623157e+308, 0.0, 0.0, 0.0, 1.7976931348623157e+308, 0.0, 0.0, 0.0, 0.05)",0.0,0.0,0.00488692190558,"(1.7976931348623157e+308, 0.0, 0.0, 0.0, 1.7976931348623157e+308, 0.0, 0.0, 0.0, 0.05)",0.0,0.0,0.0,"(0.0, 0.0, 0.0, 0.0, 0.0, 0.0, 0.0, 0.0, 0.0)"
2019/10/07/19:05:09.586986,239,1570442709,586617012,gyro_link,0.0,0.0,-0.885960876527,0.4637599867,"(1.7976931348623157e+308, 0.0, 0.0, 0.0, 1.7976931348623157e+308, 0.0, 0.0, 0.0, 0.05)",0.0,0.0,0.013962634016,"(1.7976931348623157e+308, 0.0, 0.0, 0.0, 1.7976931348623157e+308, 0.0, 0.0, 0.0, 0.05)",0.0,0.0,0.0,"(0.0, 0.0, 0.0, 0.0, 0.0, 0.0, 0.0, 0.0, 0.0)"
2019/10/07/19:05:09.609070,240,1570442709,608687892,gyro_link,0.0,0.0,-0.88592040246,0.463837299606,"(1.7976931348623157e+308, 0.0, 0.0, 0.0, 1.7976931348623157e+308, 0.0, 0.0, 0.0, 0.05)",0.0,0.0,0.0129154364648,"(1.7976931348623157e+308, 0.0, 0.0, 0.0, 1.7976931348623157e+308, 0.0, 0.0, 0.0, 0.05)",0.0,0.0,0.0,"(0.0, 0.0, 0.0, 0.0, 0.0, 0.0, 0.0, 0.0, 0.0)"
2019/10/07/19:05:09.668891,241,1570442709,668486626,gyro_link,0.0,0.0,-0.886163145651,0.463373369207,"(1.7976931348623157e+308, 0.0, 0.0, 0.0, 1.7976931348623157e+308, 0.0, 0.0, 0.0, 0.05)",0.0,0.0,-0.0155334303427,"(1.7976931348623157e+308, 0.0, 0.0, 0.0, 1.7976931348623157e+308, 0.0, 0.0, 0.0, 0.05)",0.0,0.0,0.0,"(0.0, 0.0, 0.0, 0.0, 0.0, 0.0, 0.0, 0.0, 0.0)"
2019/10/07/19:05:09.728841,242,1570442709,728318403,gyro_link,0.0,0.0,-0.886082258245,0.463528026795,"(1.7976931348623157e+308, 0.0, 0.0, 0.0, 1.7976931348623157e+308, 0.0, 0.0, 0.0, 0.05)",0.0,0.0,-0.0178023583703,"(1.7976931348623157e+308, 0.0, 0.0, 0.0, 1.7976931348623157e+308, 0.0, 0.0, 0.0, 0.05)",0.0,0.0,0.0,"(0.0, 0.0, 0.0, 0.0, 0.0, 0.0, 0.0, 0.0, 0.0)"
2019/10/07/19:05:09.788713,243,1570442709,788215516,gyro_link,0.0,0.0,-0.886405645895,0.462909311772,"(1.7976931348623157e+308, 0.0, 0.0, 0.0, 1.7976931348623157e+308, 0.0, 0.0, 0.0, 0.05)",0.0,0.0,0.0108210413624,"(1.7976931348623157e+308, 0.0, 0.0, 0.0, 1.7976931348623157e+308, 0.0, 0.0, 0.0, 0.05)",0.0,0.0,0.0,"(0.0, 0.0, 0.0, 0.0, 0.0, 0.0, 0.0, 0.0, 0.0)"
2019/10/07/19:05:09.849076,244,1570442709,848250053,gyro_link,0.0,0.0,-0.88648642531,0.462754597752,"(1.7976931348623157e+308, 0.0, 0.0, 0.0, 1.7976931348623157e+308, 0.0, 0.0, 0.0, 0.05)",0.0,0.0,-0.0242600766027,"(1.7976931348623157e+308, 0.0, 0.0, 0.0, 1.7976931348623157e+308, 0.0, 0.0, 0.0, 0.05)",0.0,0.0,0.0,"(0.0, 0.0, 0.0, 0.0, 0.0, 0.0, 0.0, 0.0, 0.0)"
2019/10/07/19:05:09.908767,245,1570442709,908122166,gyro_link,0.0,0.0,-0.886405645895,0.462909311772,"(1.7976931348623157e+308, 0.0, 0.0, 0.0, 1.7976931348623157e+308, 0.0, 0.0, 0.0, 0.05)",0.0,0.0,-0.00558505360638,"(1.7976931348623157e+308, 0.0, 0.0, 0.0, 1.7976931348623157e+308, 0.0, 0.0, 0.0, 0.05)",0.0,0.0,0.0,"(0.0, 0.0, 0.0, 0.0, 0.0, 0.0, 0.0, 0.0, 0.0)"
2019/10/07/19:05:09.968589,246,1570442709,967955272,gyro_link,0.0,0.0,-0.886688255701,0.462367751041,"(1.7976931348623157e+308, 0.0, 0.0, 0.0, 1.7976931348623157e+308, 0.0, 0.0, 0.0, 0.05)",0.0,0.0,-0.00610865238198,"(1.7976931348623157e+308, 0.0, 0.0, 0.0, 1.7976931348623157e+308, 0.0, 0.0, 0.0, 0.05)",0.0,0.0,0.0,"(0.0, 0.0, 0.0, 0.0, 0.0, 0.0, 0.0, 0.0, 0.0)"
2019/10/07/19:05:10.028459,247,1570442710,27792791,gyro_link,0.0,0.0,-0.886647903126,0.462445127428,"(1.7976931348623157e+308, 0.0, 0.0, 0.0, 1.7976931348623157e+308, 0.0, 0.0, 0.0, 0.05)",0.0,0.0,-0.0116937059884,"(1.7976931348623157e+308, 0.0, 0.0, 0.0, 1.7976931348623157e+308, 0.0, 0.0, 0.0, 0.05)",0.0,0.0,0.0,"(0.0, 0.0, 0.0, 0.0, 0.0, 0.0, 0.0, 0.0, 0.0)"
2019/10/07/19:05:10.088177,248,1570442710,87780082,gyro_link,0.0,0.0,-0.886728601522,0.462290371133,"(1.7976931348623157e+308, 0.0, 0.0, 0.0, 1.7976931348623157e+308, 0.0, 0.0, 0.0, 0.05)",0.0,0.0,0.00977384381117,"(1.7976931348623157e+308, 0.0, 0.0, 0.0, 1.7976931348623157e+308, 0.0, 0.0, 0.0, 0.05)",0.0,0.0,0.0,"(0.0, 0.0, 0.0, 0.0, 0.0, 0.0, 0.0, 0.0, 0.0)"
2019/10/07/19:05:10.148232,249,1570442710,147650625,gyro_link,0.0,0.0,-0.887010833178,0.461748613235,"(1.7976931348623157e+308, 0.0, 0.0, 0.0, 1.7976931348623157e+308, 0.0, 0.0, 0.0, 0.05)",0.0,0.0,-0.0232128790515,"(1.7976931348623157e+308, 0.0, 0.0, 0.0, 1.7976931348623157e+308, 0.0, 0.0, 0.0, 0.05)",0.0,0.0,0.0,"(0.0, 0.0, 0.0, 0.0, 0.0, 0.0, 0.0, 0.0, 0.0)"
2019/10/07/19:05:10.207778,250,1570442710,207316675,gyro_link,0.0,0.0,-0.886889917278,0.461980816302,"(1.7976931348623157e+308, 0.0, 0.0, 0.0, 1.7976931348623157e+308, 0.0, 0.0, 0.0, 0.05)",0.0,0.0,0.00733038285838,"(1.7976931348623157e+308, 0.0, 0.0, 0.0, 1.7976931348623157e+308, 0.0, 0.0, 0.0, 0.05)",0.0,0.0,0.0,"(0.0, 0.0, 0.0, 0.0, 0.0, 0.0, 0.0, 0.0, 0.0)"
2019/10/07/19:05:10.267823,251,1570442710,267389587,gyro_link,0.0,0.0,-0.886970534633,0.461826017774,"(1.7976931348623157e+308, 0.0, 0.0, 0.0, 1.7976931348623157e+308, 0.0, 0.0, 0.0, 0.05)",0.0,0.0,-0.00174532925199,"(1.7976931348623157e+308, 0.0, 0.0, 0.0, 1.7976931348623157e+308, 0.0, 0.0, 0.0, 0.05)",0.0,0.0,0.0,"(0.0, 0.0, 0.0, 0.0, 0.0, 0.0, 0.0, 0.0, 0.0)"
2019/10/07/19:05:10.326546,252,1570442710,326220821,gyro_link,0.0,0.0,-0.887212224575,0.461361537804,"(1.7976931348623157e+308, 0.0, 0.0, 0.0, 1.7976931348623157e+308, 0.0, 0.0, 0.0, 0.05)",0.0,0.0,-0.0422369678983,"(1.7976931348623157e+308, 0.0, 0.0, 0.0, 1.7976931348623157e+308, 0.0, 0.0, 0.0, 0.05)",0.0,0.0,0.0,"(0.0, 0.0, 0.0, 0.0, 0.0, 0.0, 0.0, 0.0, 0.0)"
2019/10/07/19:05:10.384823,253,1570442710,384116356,gyro_link,0.0,0.0,-0.887453671283,0.460896931348,"(1.7976931348623157e+308, 0.0, 0.0, 0.0, 1.7976931348623157e+308, 0.0, 0.0, 0.0, 0.05)",0.0,0.0,0.013962634016,"(1.7976931348623157e+308, 0.0, 0.0, 0.0, 1.7976931348623157e+308, 0.0, 0.0, 0.0, 0.05)",0.0,0.0,0.0,"(0.0, 0.0, 0.0, 0.0, 0.0, 0.0, 0.0, 0.0, 0.0)"
2019/10/07/19:05:10.407979,254,1570442710,407342931,gyro_link,0.0,0.0,-0.887413447059,0.460974374535,"(1.7976931348623157e+308, 0.0, 0.0, 0.0, 1.7976931348623157e+308, 0.0, 0.0, 0.0, 0.05)",0.0,0.0,-0.0010471975512,"(1.7976931348623157e+308, 0.0, 0.0, 0.0, 1.7976931348623157e+308, 0.0, 0.0, 0.0, 0.05)",0.0,0.0,0.0,"(0.0, 0.0, 0.0, 0.0, 0.0, 0.0, 0.0, 0.0, 0.0)"
2019/10/07/19:05:10.466627,255,1570442710,466208872,gyro_link,0.0,0.0,-0.887493888749,0.46081948465,"(1.7976931348623157e+308, 0.0, 0.0, 0.0, 1.7976931348623157e+308, 0.0, 0.0, 0.0, 0.05)",0.0,0.0,0.00261799387799,"(1.7976931348623157e+308, 0.0, 0.0, 0.0, 1.7976931348623157e+308, 0.0, 0.0, 0.0, 0.05)",0.0,0.0,0.0,"(0.0, 0.0, 0.0, 0.0, 0.0, 0.0, 0.0, 0.0, 0.0)"
2019/10/07/19:05:10.524406,256,1570442710,524104097,gyro_link,0.0,0.0,-0.887654691022,0.460509662773,"(1.7976931348623157e+308, 0.0, 0.0, 0.0, 1.7976931348623157e+308, 0.0, 0.0, 0.0, 0.05)",0.0,0.0,-0.0240855436775,"(1.7976931348623157e+308, 0.0, 0.0, 0.0, 1.7976931348623157e+308, 0.0, 0.0, 0.0, 0.05)",0.0,0.0,0.0,"(0.0, 0.0, 0.0, 0.0, 0.0, 0.0, 0.0, 0.0, 0.0)"
2019/10/07/19:05:10.546553,257,1570442710,545995601,gyro_link,0.0,0.0,-0.8877350516,0.46035473079,"(1.7976931348623157e+308, 0.0, 0.0, 0.0, 1.7976931348623157e+308, 0.0, 0.0, 0.0, 0.05)",0.0,0.0,-0.0125663706144,"(1.7976931348623157e+308, 0.0, 0.0, 0.0, 1.7976931348623157e+308, 0.0, 0.0, 0.0, 0.05)",0.0,0.0,0.0,"(0.0, 0.0, 0.0, 0.0, 0.0, 0.0, 0.0, 0.0, 0.0)"
2019/10/07/19:05:10.604469,258,1570442710,604088733,gyro_link,0.0,0.0,-0.887694874691,0.460432198535,"(1.7976931348623157e+308, 0.0, 0.0, 0.0, 1.7976931348623157e+308, 0.0, 0.0, 0.0, 0.05)",0.0,0.0,0.00191986217719,"(1.7976931348623157e+308, 0.0, 0.0, 0.0, 1.7976931348623157e+308, 0.0, 0.0, 0.0, 0.05)",0.0,0.0,0.0,"(0.0, 0.0, 0.0, 0.0, 0.0, 0.0, 0.0, 0.0, 0.0)"
2019/10/07/19:05:10.626497,259,1570442710,625712776,gyro_link,0.0,0.0,-0.887654691022,0.460509662773,"(1.7976931348623157e+308, 0.0, 0.0, 0.0, 1.7976931348623157e+308, 0.0, 0.0, 0.0, 0.05)",0.0,0.0,0.00767944870878,"(1.7976931348623157e+308, 0.0, 0.0, 0.0, 1.7976931348623157e+308, 0.0, 0.0, 0.0, 0.05)",0.0,0.0,0.0,"(0.0, 0.0, 0.0, 0.0, 0.0, 0.0, 0.0, 0.0, 0.0)"
2019/10/07/19:05:10.684272,260,1570442710,683542929,gyro_link,0.0,0.0,-0.887614500592,0.460587123504,"(1.7976931348623157e+308, 0.0, 0.0, 0.0, 1.7976931348623157e+308, 0.0, 0.0, 0.0, 0.05)",0.0,0.0,-0.0127409035396,"(1.7976931348623157e+308, 0.0, 0.0, 0.0, 1.7976931348623157e+308, 0.0, 0.0, 0.0, 0.05)",0.0,0.0,0.0,"(0.0, 0.0, 0.0, 0.0, 0.0, 0.0, 0.0, 0.0, 0.0)"
2019/10/07/19:05:10.706337,261,1570442710,705784676,gyro_link,0.0,0.0,-0.887694874691,0.460432198535,"(1.7976931348623157e+308, 0.0, 0.0, 0.0, 1.7976931348623157e+308, 0.0, 0.0, 0.0, 0.05)",0.0,0.0,-0.0261799387799,"(1.7976931348623157e+308, 0.0, 0.0, 0.0, 1.7976931348623157e+308, 0.0, 0.0, 0.0, 0.05)",0.0,0.0,0.0,"(0.0, 0.0, 0.0, 0.0, 0.0, 0.0, 0.0, 0.0, 0.0)"
2019/10/07/19:05:10.764037,262,1570442710,763363100,gyro_link,0.0,0.0,-0.887935834732,0.459967339491,"(1.7976931348623157e+308, 0.0, 0.0, 0.0, 1.7976931348623157e+308, 0.0, 0.0, 0.0, 0.05)",0.0,0.0,-0.0010471975512,"(1.7976931348623157e+308, 0.0, 0.0, 0.0, 1.7976931348623157e+308, 0.0, 0.0, 0.0, 0.05)",0.0,0.0,0.0,"(0.0, 0.0, 0.0, 0.0, 0.0, 0.0, 0.0, 0.0, 0.0)"
2019/10/07/19:05:10.785961,263,1570442710,785604822,gyro_link,0.0,0.0,-0.887975971074,0.459889850721,"(1.7976931348623157e+308, 0.0, 0.0, 0.0, 1.7976931348623157e+308, 0.0, 0.0, 0.0, 0.05)",0.0,0.0,-0.00523598775598,"(1.7976931348623157e+308, 0.0, 0.0, 0.0, 1.7976931348623157e+308, 0.0, 0.0, 0.0, 0.05)",0.0,0.0,0.0,"(0.0, 0.0, 0.0, 0.0, 0.0, 0.0, 0.0, 0.0, 0.0)"
2019/10/07/19:05:10.845675,264,1570442710,845391738,gyro_link,0.0,0.0,-0.888056223469,0.459734862673,"(1.7976931348623157e+308, 0.0, 0.0, 0.0, 1.7976931348623157e+308, 0.0, 0.0, 0.0, 0.05)",0.0,0.0,-0.00663225115758,"(1.7976931348623157e+308, 0.0, 0.0, 0.0, 1.7976931348623157e+308, 0.0, 0.0, 0.0, 0.05)",0.0,0.0,0.0,"(0.0, 0.0, 0.0, 0.0, 0.0, 0.0, 0.0, 0.0, 0.0)"
2019/10/07/19:05:10.903758,265,1570442710,903174101,gyro_link,0.0,0.0,-0.888096339523,0.459657363398,"(1.7976931348623157e+308, 0.0, 0.0, 0.0, 1.7976931348623157e+308, 0.0, 0.0, 0.0, 0.05)",0.0,0.0,-0.0160570291183,"(1.7976931348623157e+308, 0.0, 0.0, 0.0, 1.7976931348623157e+308, 0.0, 0.0, 0.0, 0.05)",0.0,0.0,0.0,"(0.0, 0.0, 0.0, 0.0, 0.0, 0.0, 0.0, 0.0, 0.0)"
2019/10/07/19:05:10.925766,266,1570442710,925320256,gyro_link,0.0,0.0,-0.888136448814,0.459579860621,"(1.7976931348623157e+308, 0.0, 0.0, 0.0, 1.7976931348623157e+308, 0.0, 0.0, 0.0, 0.05)",0.0,0.0,0.000174532925199,"(1.7976931348623157e+308, 0.0, 0.0, 0.0, 1.7976931348623157e+308, 0.0, 0.0, 0.0, 0.05)",0.0,0.0,0.0,"(0.0, 0.0, 0.0, 0.0, 0.0, 0.0, 0.0, 0.0, 0.0)"
2019/10/07/19:05:10.983454,267,1570442710,983133288,gyro_link,0.0,0.0,-0.888136448814,0.459579860621,"(1.7976931348623157e+308, 0.0, 0.0, 0.0, 1.7976931348623157e+308, 0.0, 0.0, 0.0, 0.05)",0.0,0.0,-0.0120427718388,"(1.7976931348623157e+308, 0.0, 0.0, 0.0, 1.7976931348623157e+308, 0.0, 0.0, 0.0, 0.05)",0.0,0.0,0.0,"(0.0, 0.0, 0.0, 0.0, 0.0, 0.0, 0.0, 0.0, 0.0)"
2019/10/07/19:05:11.005259,268,1570442711,5036143,gyro_link,0.0,0.0,-0.88817655134,0.459502354345,"(1.7976931348623157e+308, 0.0, 0.0, 0.0, 1.7976931348623157e+308, 0.0, 0.0, 0.0, 0.05)",0.0,0.0,0.000349065850399,"(1.7976931348623157e+308, 0.0, 0.0, 0.0, 1.7976931348623157e+308, 0.0, 0.0, 0.0, 0.05)",0.0,0.0,0.0,"(0.0, 0.0, 0.0, 0.0, 0.0, 0.0, 0.0, 0.0, 0.0)"
2019/10/07/19:05:11.065603,269,1570442711,65111432,gyro_link,0.0,0.0,-0.888136448814,0.459579860621,"(1.7976931348623157e+308, 0.0, 0.0, 0.0, 1.7976931348623157e+308, 0.0, 0.0, 0.0, 0.05)",0.0,0.0,-0.00907571211037,"(1.7976931348623157e+308, 0.0, 0.0, 0.0, 1.7976931348623157e+308, 0.0, 0.0, 0.0, 0.05)",0.0,0.0,0.0,"(0.0, 0.0, 0.0, 0.0, 0.0, 0.0, 0.0, 0.0, 0.0)"
2019/10/07/19:05:11.125449,270,1570442711,124869467,gyro_link,0.0,0.0,-0.888256736102,0.459347331296,"(1.7976931348623157e+308, 0.0, 0.0, 0.0, 1.7976931348623157e+308, 0.0, 0.0, 0.0, 0.05)",0.0,0.0,-0.00488692190558,"(1.7976931348623157e+308, 0.0, 0.0, 0.0, 1.7976931348623157e+308, 0.0, 0.0, 0.0, 0.05)",0.0,0.0,0.0,"(0.0, 0.0, 0.0, 0.0, 0.0, 0.0, 0.0, 0.0, 0.0)"
2019/10/07/19:05:11.184900,271,1570442711,184596540,gyro_link,0.0,0.0,-0.888336893806,0.459192294254,"(1.7976931348623157e+308, 0.0, 0.0, 0.0, 1.7976931348623157e+308, 0.0, 0.0, 0.0, 0.05)",0.0,0.0,-0.0174532925199,"(1.7976931348623157e+308, 0.0, 0.0, 0.0, 1.7976931348623157e+308, 0.0, 0.0, 0.0, 0.05)",0.0,0.0,0.0,"(0.0, 0.0, 0.0, 0.0, 0.0, 0.0, 0.0, 0.0, 0.0)"
2019/10/07/19:05:11.245218,272,1570442711,244809521,gyro_link,0.0,0.0,-0.88817655134,0.459502354345,"(1.7976931348623157e+308, 0.0, 0.0, 0.0, 1.7976931348623157e+308, 0.0, 0.0, 0.0, 0.05)",0.0,0.0,0.00663225115758,"(1.7976931348623157e+308, 0.0, 0.0, 0.0, 1.7976931348623157e+308, 0.0, 0.0, 0.0, 0.05)",0.0,0.0,0.0,"(0.0, 0.0, 0.0, 0.0, 0.0, 0.0, 0.0, 0.0, 0.0)"
2019/10/07/19:05:11.304888,273,1570442711,304531831,gyro_link,0.0,0.0,-0.888376962511,0.459114770487,"(1.7976931348623157e+308, 0.0, 0.0, 0.0, 1.7976931348623157e+308, 0.0, 0.0, 0.0, 0.05)",0.0,0.0,-0.0219911485751,"(1.7976931348623157e+308, 0.0, 0.0, 0.0, 1.7976931348623157e+308, 0.0, 0.0, 0.0, 0.05)",0.0,0.0,0.0,"(0.0, 0.0, 0.0, 0.0, 0.0, 0.0, 0.0, 0.0, 0.0)"
2019/10/07/19:05:11.365062,274,1570442711,364444809,gyro_link,0.0,0.0,-0.888617232655,0.458649554484,"(1.7976931348623157e+308, 0.0, 0.0, 0.0, 1.7976931348623157e+308, 0.0, 0.0, 0.0, 0.05)",0.0,0.0,-0.0115191730632,"(1.7976931348623157e+308, 0.0, 0.0, 0.0, 1.7976931348623157e+308, 0.0, 0.0, 0.0, 0.05)",0.0,0.0,0.0,"(0.0, 0.0, 0.0, 0.0, 0.0, 0.0, 0.0, 0.0, 0.0)"
2019/10/07/19:05:11.424711,275,1570442711,424347302,gyro_link,0.0,0.0,-0.888457079624,0.458959712465,"(1.7976931348623157e+308, 0.0, 0.0, 0.0, 1.7976931348623157e+308, 0.0, 0.0, 0.0, 0.05)",0.0,0.0,0.0361283155163,"(1.7976931348623157e+308, 0.0, 0.0, 0.0, 1.7976931348623157e+308, 0.0, 0.0, 0.0, 0.05)",0.0,0.0,0.0,"(0.0, 0.0, 0.0, 0.0, 0.0, 0.0, 0.0, 0.0, 0.0)"
2019/10/07/19:05:11.484555,276,1570442711,484155303,gyro_link,0.0,0.0,-0.888457079624,0.458959712465,"(1.7976931348623157e+308, 0.0, 0.0, 0.0, 1.7976931348623157e+308, 0.0, 0.0, 0.0, 0.05)",0.0,0.0,-0.00471238898038,"(1.7976931348623157e+308, 0.0, 0.0, 0.0, 1.7976931348623157e+308, 0.0, 0.0, 0.0, 0.05)",0.0,0.0,0.0,"(0.0, 0.0, 0.0, 0.0, 0.0, 0.0, 0.0, 0.0, 0.0)"
2019/10/07/19:05:11.543489,277,1570442711,543106343,gyro_link,0.0,0.0,-0.888577204547,0.45872709922,"(1.7976931348623157e+308, 0.0, 0.0, 0.0, 1.7976931348623157e+308, 0.0, 0.0, 0.0, 0.05)",0.0,0.0,-0.0150098315672,"(1.7976931348623157e+308, 0.0, 0.0, 0.0, 1.7976931348623157e+308, 0.0, 0.0, 0.0, 0.05)",0.0,0.0,0.0,"(0.0, 0.0, 0.0, 0.0, 0.0, 0.0, 0.0, 0.0, 0.0)"
2019/10/07/19:05:11.564286,278,1570442711,564061402,gyro_link,0.0,0.0,-0.888697268569,0.458494454534,"(1.7976931348623157e+308, 0.0, 0.0, 0.0, 1.7976931348623157e+308, 0.0, 0.0, 0.0, 0.05)",0.0,0.0,-0.0167551608191,"(1.7976931348623157e+308, 0.0, 0.0, 0.0, 1.7976931348623157e+308, 0.0, 0.0, 0.0, 0.05)",0.0,0.0,0.0,"(0.0, 0.0, 0.0, 0.0, 0.0, 0.0, 0.0, 0.0, 0.0)"
2019/10/07/19:05:11.623284,279,1570442711,622965966,gyro_link,0.0,0.0,-0.888617232655,0.458649554484,"(1.7976931348623157e+308, 0.0, 0.0, 0.0, 1.7976931348623157e+308, 0.0, 0.0, 0.0, 0.05)",0.0,0.0,0.0178023583703,"(1.7976931348623157e+308, 0.0, 0.0, 0.0, 1.7976931348623157e+308, 0.0, 0.0, 0.0, 0.05)",0.0,0.0,0.0,"(0.0, 0.0, 0.0, 0.0, 0.0, 0.0, 0.0, 0.0, 0.0)"
2019/10/07/19:05:11.681307,280,1570442711,680731701,gyro_link,0.0,0.0,-0.888777277411,0.458339340618,"(1.7976931348623157e+308, 0.0, 0.0, 0.0, 1.7976931348623157e+308, 0.0, 0.0, 0.0, 0.05)",0.0,0.0,-0.00663225115758,"(1.7976931348623157e+308, 0.0, 0.0, 0.0, 1.7976931348623157e+308, 0.0, 0.0, 0.0, 0.05)",0.0,0.0,0.0,"(0.0, 0.0, 0.0, 0.0, 0.0, 0.0, 0.0, 0.0, 0.0)"
2019/10/07/19:05:11.703972,281,1570442711,703667167,gyro_link,0.0,0.0,-0.888777277411,0.458339340618,"(1.7976931348623157e+308, 0.0, 0.0, 0.0, 1.7976931348623157e+308, 0.0, 0.0, 0.0, 0.05)",0.0,0.0,0.00279252680319,"(1.7976931348623157e+308, 0.0, 0.0, 0.0, 1.7976931348623157e+308, 0.0, 0.0, 0.0, 0.05)",0.0,0.0,0.0,"(0.0, 0.0, 0.0, 0.0, 0.0, 0.0, 0.0, 0.0, 0.0)"
2019/10/07/19:05:11.763141,282,1570442711,762611151,gyro_link,0.0,0.0,-0.888937213872,0.458029070905,"(1.7976931348623157e+308, 0.0, 0.0, 0.0, 1.7976931348623157e+308, 0.0, 0.0, 0.0, 0.05)",0.0,0.0,-0.0167551608191,"(1.7976931348623157e+308, 0.0, 0.0, 0.0, 1.7976931348623157e+308, 0.0, 0.0, 0.0, 0.05)",0.0,0.0,0.0,"(0.0, 0.0, 0.0, 0.0, 0.0, 0.0, 0.0, 0.0, 0.0)"
2019/10/07/19:05:11.820796,283,1570442711,820574525,gyro_link,0.0,0.0,-0.888857259179,0.45818421274,"(1.7976931348623157e+308, 0.0, 0.0, 0.0, 1.7976931348623157e+308, 0.0, 0.0, 0.0, 0.05)",0.0,0.0,0.00331612557879,"(1.7976931348623157e+308, 0.0, 0.0, 0.0, 1.7976931348623157e+308, 0.0, 0.0, 0.0, 0.05)",0.0,0.0,0.0,"(0.0, 0.0, 0.0, 0.0, 0.0, 0.0, 0.0, 0.0, 0.0)"
2019/10/07/19:05:11.843150,284,1570442711,842708672,gyro_link,0.0,0.0,-0.88889723991,0.458106643567,"(1.7976931348623157e+308, 0.0, 0.0, 0.0, 1.7976931348623157e+308, 0.0, 0.0, 0.0, 0.05)",0.0,0.0,-0.0164060949687,"(1.7976931348623157e+308, 0.0, 0.0, 0.0, 1.7976931348623157e+308, 0.0, 0.0, 0.0, 0.05)",0.0,0.0,0.0,"(0.0, 0.0, 0.0, 0.0, 0.0, 0.0, 0.0, 0.0, 0.0)"
2019/10/07/19:05:11.900783,285,1570442711,900410662,gyro_link,0.0,0.0,-0.889057095137,0.457796331992,"(1.7976931348623157e+308, 0.0, 0.0, 0.0, 1.7976931348623157e+308, 0.0, 0.0, 0.0, 0.05)",0.0,0.0,0.00959931088597,"(1.7976931348623157e+308, 0.0, 0.0, 0.0, 1.7976931348623157e+308, 0.0, 0.0, 0.0, 0.05)",0.0,0.0,0.0,"(0.0, 0.0, 0.0, 0.0, 0.0, 0.0, 0.0, 0.0, 0.0)"
2019/10/07/19:05:11.922831,286,1570442711,922360569,gyro_link,0.0,0.0,-0.889097042019,0.457718745382,"(1.7976931348623157e+308, 0.0, 0.0, 0.0, 1.7976931348623157e+308, 0.0, 0.0, 0.0, 0.05)",0.0,0.0,-0.0155334303427,"(1.7976931348623157e+308, 0.0, 0.0, 0.0, 1.7976931348623157e+308, 0.0, 0.0, 0.0, 0.05)",0.0,0.0,0.0,"(0.0, 0.0, 0.0, 0.0, 0.0, 0.0, 0.0, 0.0, 0.0)"
2019/10/07/19:05:11.980540,287,1570442711,980230109,gyro_link,0.0,0.0,-0.889057095137,0.457796331992,"(1.7976931348623157e+308, 0.0, 0.0, 0.0, 1.7976931348623157e+308, 0.0, 0.0, 0.0, 0.05)",0.0,0.0,0.0282743338823,"(1.7976931348623157e+308, 0.0, 0.0, 0.0, 1.7976931348623157e+308, 0.0, 0.0, 0.0, 0.05)",0.0,0.0,0.0,"(0.0, 0.0, 0.0, 0.0, 0.0, 0.0, 0.0, 0.0, 0.0)"
2019/10/07/19:05:12.002573,288,1570442712,2193659,gyro_link,0.0,0.0,-0.888977181064,0.457951494755,"(1.7976931348623157e+308, 0.0, 0.0, 0.0, 1.7976931348623157e+308, 0.0, 0.0, 0.0, 0.05)",0.0,0.0,0.0223402144255,"(1.7976931348623157e+308, 0.0, 0.0, 0.0, 1.7976931348623157e+308, 0.0, 0.0, 0.0, 0.05)",0.0,0.0,0.0,"(0.0, 0.0, 0.0, 0.0, 0.0, 0.0, 0.0, 0.0, 0.0)"
2019/10/07/19:05:12.060329,289,1570442712,59963782,gyro_link,0.0,0.0,-0.889216842036,0.457485964637,"(1.7976931348623157e+308, 0.0, 0.0, 0.0, 1.7976931348623157e+308, 0.0, 0.0, 0.0, 0.05)",0.0,0.0,-0.0223402144255,"(1.7976931348623157e+308, 0.0, 0.0, 0.0, 1.7976931348623157e+308, 0.0, 0.0, 0.0, 0.05)",0.0,0.0,0.0,"(0.0, 0.0, 0.0, 0.0, 0.0, 0.0, 0.0, 0.0, 0.0)"
2019/10/07/19:05:12.082263,290,1570442712,82001530,gyro_link,0.0,0.0,-0.889216842036,0.457485964637,"(1.7976931348623157e+308, 0.0, 0.0, 0.0, 1.7976931348623157e+308, 0.0, 0.0, 0.0, 0.05)",0.0,0.0,0.0010471975512,"(1.7976931348623157e+308, 0.0, 0.0, 0.0, 1.7976931348623157e+308, 0.0, 0.0, 0.0, 0.05)",0.0,0.0,0.0,"(0.0, 0.0, 0.0, 0.0, 0.0, 0.0, 0.0, 0.0, 0.0)"
2019/10/07/19:05:12.142341,291,1570442712,141989830,gyro_link,0.0,0.0,-0.889416373291,0.457097927059,"(1.7976931348623157e+308, 0.0, 0.0, 0.0, 1.7976931348623157e+308, 0.0, 0.0, 0.0, 0.05)",0.0,0.0,-0.0218166156499,"(1.7976931348623157e+308, 0.0, 0.0, 0.0, 1.7976931348623157e+308, 0.0, 0.0, 0.0, 0.05)",0.0,0.0,0.0,"(0.0, 0.0, 0.0, 0.0, 0.0, 0.0, 0.0, 0.0, 0.0)"
2019/10/07/19:05:12.200203,292,1570442712,199887192,gyro_link,0.0,0.0,-0.889336581107,0.457253152537,"(1.7976931348623157e+308, 0.0, 0.0, 0.0, 1.7976931348623157e+308, 0.0, 0.0, 0.0, 0.05)",0.0,0.0,0.00366519142919,"(1.7976931348623157e+308, 0.0, 0.0, 0.0, 1.7976931348623157e+308, 0.0, 0.0, 0.0, 0.05)",0.0,0.0,0.0,"(0.0, 0.0, 0.0, 0.0, 0.0, 0.0, 0.0, 0.0, 0.0)"
2019/10/07/19:05:12.222077,293,1570442712,221767739,gyro_link,0.0,0.0,-0.889376480586,0.457175541539,"(1.7976931348623157e+308, 0.0, 0.0, 0.0, 1.7976931348623157e+308, 0.0, 0.0, 0.0, 0.05)",0.0,0.0,-0.0188495559215,"(1.7976931348623157e+308, 0.0, 0.0, 0.0, 1.7976931348623157e+308, 0.0, 0.0, 0.0, 0.05)",0.0,0.0,0.0,"(0.0, 0.0, 0.0, 0.0, 0.0, 0.0, 0.0, 0.0, 0.0)"
2019/10/07/19:05:12.279822,294,1570442712,279508994,gyro_link,0.0,0.0,-0.889456259224,0.457020309098,"(1.7976931348623157e+308, 0.0, 0.0, 0.0, 1.7976931348623157e+308, 0.0, 0.0, 0.0, 0.05)",0.0,0.0,0.0115191730632,"(1.7976931348623157e+308, 0.0, 0.0, 0.0, 1.7976931348623157e+308, 0.0, 0.0, 0.0, 0.05)",0.0,0.0,0.0,"(0.0, 0.0, 0.0, 0.0, 0.0, 0.0, 0.0, 0.0, 0.0)"
2019/10/07/19:05:12.302083,295,1570442712,301729683,gyro_link,0.0,0.0,-0.889416373291,0.457097927059,"(1.7976931348623157e+308, 0.0, 0.0, 0.0, 1.7976931348623157e+308, 0.0, 0.0, 0.0, 0.05)",0.0,0.0,0.00820304748437,"(1.7976931348623157e+308, 0.0, 0.0, 0.0, 1.7976931348623157e+308, 0.0, 0.0, 0.0, 0.05)",0.0,0.0,0.0,"(0.0, 0.0, 0.0, 0.0, 0.0, 0.0, 0.0, 0.0, 0.0)"
2019/10/07/19:05:12.362014,296,1570442712,361627055,gyro_link,0.0,0.0,-0.889775102808,0.456399240164,"(1.7976931348623157e+308, 0.0, 0.0, 0.0, 1.7976931348623157e+308, 0.0, 0.0, 0.0, 0.05)",0.0,0.0,-0.00174532925199,"(1.7976931348623157e+308, 0.0, 0.0, 0.0, 1.7976931348623157e+308, 0.0, 0.0, 0.0, 0.05)",0.0,0.0,0.0,"(0.0, 0.0, 0.0, 0.0, 0.0, 0.0, 0.0, 0.0, 0.0)"
2019/10/07/19:05:12.421921,297,1570442712,421549305,gyro_link,0.0,0.0,-0.889575876378,0.456787434334,"(1.7976931348623157e+308, 0.0, 0.0, 0.0, 1.7976931348623157e+308, 0.0, 0.0, 0.0, 0.05)",0.0,0.0,-0.0294960643587,"(1.7976931348623157e+308, 0.0, 0.0, 0.0, 1.7976931348623157e+308, 0.0, 0.0, 0.0, 0.05)",0.0,0.0,0.0,"(0.0, 0.0, 0.0, 0.0, 0.0, 0.0, 0.0, 0.0, 0.0)"
2019/10/07/19:05:12.481914,298,1570442712,481482017,gyro_link,0.0,0.0,-0.889814927768,0.4563215909,"(1.7976931348623157e+308, 0.0, 0.0, 0.0, 1.7976931348623157e+308, 0.0, 0.0, 0.0, 0.05)",0.0,0.0,0.00261799387799,"(1.7976931348623157e+308, 0.0, 0.0, 0.0, 1.7976931348623157e+308, 0.0, 0.0, 0.0, 0.05)",0.0,0.0,0.0,"(0.0, 0.0, 0.0, 0.0, 0.0, 0.0, 0.0, 0.0, 0.0)"
2019/10/07/19:05:12.541811,299,1570442712,541440183,gyro_link,0.0,0.0,-0.890013950912,0.455933292469,"(1.7976931348623157e+308, 0.0, 0.0, 0.0, 1.7976931348623157e+308, 0.0, 0.0, 0.0, 0.05)",0.0,0.0,-0.0218166156499,"(1.7976931348623157e+308, 0.0, 0.0, 0.0, 1.7976931348623157e+308, 0.0, 0.0, 0.0, 0.05)",0.0,0.0,0.0,"(0.0, 0.0, 0.0, 0.0, 0.0, 0.0, 0.0, 0.0, 0.0)"
2019/10/07/19:05:12.601994,300,1570442712,601210094,gyro_link,0.0,0.0,-0.889775102808,0.456399240164,"(1.7976931348623157e+308, 0.0, 0.0, 0.0, 1.7976931348623157e+308, 0.0, 0.0, 0.0, 0.05)",0.0,0.0,0.0010471975512,"(1.7976931348623157e+308, 0.0, 0.0, 0.0, 1.7976931348623157e+308, 0.0, 0.0, 0.0, 0.05)",0.0,0.0,0.0,"(0.0, 0.0, 0.0, 0.0, 0.0, 0.0, 0.0, 0.0, 0.0)"
2019/10/07/19:05:12.661243,301,1570442712,660903909,gyro_link,0.0,0.0,-0.890053735209,0.455855622364,"(1.7976931348623157e+308, 0.0, 0.0, 0.0, 1.7976931348623157e+308, 0.0, 0.0, 0.0, 0.05)",0.0,0.0,0.0123918376892,"(1.7976931348623157e+308, 0.0, 0.0, 0.0, 1.7976931348623157e+308, 0.0, 0.0, 0.0, 0.05)",0.0,0.0,0.0,"(0.0, 0.0, 0.0, 0.0, 0.0, 0.0, 0.0, 0.0, 0.0)"
2019/10/07/19:05:12.721236,302,1570442712,720828078,gyro_link,0.0,0.0,-0.890173047429,0.455622591221,"(1.7976931348623157e+308, 0.0, 0.0, 0.0, 1.7976931348623157e+308, 0.0, 0.0, 0.0, 0.05)",0.0,0.0,-0.0291469985083,"(1.7976931348623157e+308, 0.0, 0.0, 0.0, 1.7976931348623157e+308, 0.0, 0.0, 0.0, 0.05)",0.0,0.0,0.0,"(0.0, 0.0, 0.0, 0.0, 0.0, 0.0, 0.0, 0.0, 0.0)"
2019/10/07/19:05:12.781362,303,1570442712,780922984,gyro_link,0.0,0.0,-0.889934361986,0.456088622262,"(1.7976931348623157e+308, 0.0, 0.0, 0.0, 1.7976931348623157e+308, 0.0, 0.0, 0.0, 0.05)",0.0,0.0,0.0223402144255,"(1.7976931348623157e+308, 0.0, 0.0, 0.0, 1.7976931348623157e+308, 0.0, 0.0, 0.0, 0.05)",0.0,0.0,0.0,"(0.0, 0.0, 0.0, 0.0, 0.0, 0.0, 0.0, 0.0, 0.0)"
2019/10/07/19:05:12.841003,304,1570442712,840691561,gyro_link,0.0,0.0,-0.890173047429,0.455622591221,"(1.7976931348623157e+308, 0.0, 0.0, 0.0, 1.7976931348623157e+308, 0.0, 0.0, 0.0, 0.05)",0.0,0.0,0.00506145483078,"(1.7976931348623157e+308, 0.0, 0.0, 0.0, 1.7976931348623157e+308, 0.0, 0.0, 0.0, 0.05)",0.0,0.0,0.0,"(0.0, 0.0, 0.0, 0.0, 0.0, 0.0, 0.0, 0.0, 0.0)"
2019/10/07/19:05:12.900961,305,1570442712,900606686,gyro_link,0.0,0.0,-0.890133283468,0.455700271739,"(1.7976931348623157e+308, 0.0, 0.0, 0.0, 1.7976931348623157e+308, 0.0, 0.0, 0.0, 0.05)",0.0,0.0,-0.0301941960595,"(1.7976931348623157e+308, 0.0, 0.0, 0.0, 1.7976931348623157e+308, 0.0, 0.0, 0.0, 0.05)",0.0,0.0,0.0,"(0.0, 0.0, 0.0, 0.0, 0.0, 0.0, 0.0, 0.0, 0.0)"
2019/10/07/19:05:12.959886,306,1570442712,959268462,gyro_link,0.0,0.0,-0.890093512728,0.455777948787,"(1.7976931348623157e+308, 0.0, 0.0, 0.0, 1.7976931348623157e+308, 0.0, 0.0, 0.0, 0.05)",0.0,0.0,0.0410152374219,"(1.7976931348623157e+308, 0.0, 0.0, 0.0, 1.7976931348623157e+308, 0.0, 0.0, 0.0, 0.05)",0.0,0.0,0.0,"(0.0, 0.0, 0.0, 0.0, 0.0, 0.0, 0.0, 0.0, 0.0)"
2019/10/07/19:05:12.980641,307,1570442712,980371018,gyro_link,0.0,0.0,-0.889974159838,0.456010959102,"(1.7976931348623157e+308, 0.0, 0.0, 0.0, 1.7976931348623157e+308, 0.0, 0.0, 0.0, 0.05)",0.0,0.0,0.000349065850399,"(1.7976931348623157e+308, 0.0, 0.0, 0.0, 1.7976931348623157e+308, 0.0, 0.0, 0.0, 0.05)",0.0,0.0,0.0,"(0.0, 0.0, 0.0, 0.0, 0.0, 0.0, 0.0, 0.0, 0.0)"
2019/10/07/19:05:13.039680,308,1570442713,39337487,gyro_link,0.0,0.0,-0.890212804611,0.455544907234,"(1.7976931348623157e+308, 0.0, 0.0, 0.0, 1.7976931348623157e+308, 0.0, 0.0, 0.0, 0.05)",0.0,0.0,0.013962634016,"(1.7976931348623157e+308, 0.0, 0.0, 0.0, 1.7976931348623157e+308, 0.0, 0.0, 0.0, 0.05)",0.0,0.0,0.0,"(0.0, 0.0, 0.0, 0.0, 0.0, 0.0, 0.0, 0.0, 0.0)"
2019/10/07/19:05:13.097711,309,1570442713,97056844,gyro_link,0.0,0.0,-0.890451205327,0.455078730475,"(1.7976931348623157e+308, 0.0, 0.0, 0.0, 1.7976931348623157e+308, 0.0, 0.0, 0.0, 0.05)",0.0,0.0,-0.0287979326579,"(1.7976931348623157e+308, 0.0, 0.0, 0.0, 1.7976931348623157e+308, 0.0, 0.0, 0.0, 0.05)",0.0,0.0,0.0,"(0.0, 0.0, 0.0, 0.0, 0.0, 0.0, 0.0, 0.0, 0.0)"
2019/10/07/19:05:13.120639,310,1570442713,120206798,gyro_link,0.0,0.0,-0.890411488826,0.455156435269,"(1.7976931348623157e+308, 0.0, 0.0, 0.0, 1.7976931348623157e+308, 0.0, 0.0, 0.0, 0.05)",0.0,0.0,0.0226892802759,"(1.7976931348623157e+308, 0.0, 0.0, 0.0, 1.7976931348623157e+308, 0.0, 0.0, 0.0, 0.05)",0.0,0.0,0.0,"(0.0, 0.0, 0.0, 0.0, 0.0, 0.0, 0.0, 0.0, 0.0)"
2019/10/07/19:05:13.179629,311,1570442713,179054570,gyro_link,0.0,0.0,-0.890252555014,0.455467219777,"(1.7976931348623157e+308, 0.0, 0.0, 0.0, 1.7976931348623157e+308, 0.0, 0.0, 0.0, 0.05)",0.0,0.0,-0.0151843644924,"(1.7976931348623157e+308, 0.0, 0.0, 0.0, 1.7976931348623157e+308, 0.0, 0.0, 0.0, 0.05)",0.0,0.0,0.0,"(0.0, 0.0, 0.0, 0.0, 0.0, 0.0, 0.0, 0.0, 0.0)"
2019/10/07/19:05:13.237253,312,1570442713,236898553,gyro_link,0.0,0.0,-0.890173047429,0.455622591221,"(1.7976931348623157e+308, 0.0, 0.0, 0.0, 1.7976931348623157e+308, 0.0, 0.0, 0.0, 0.05)",0.0,0.0,0.0411897703471,"(1.7976931348623157e+308, 0.0, 0.0, 0.0, 1.7976931348623157e+308, 0.0, 0.0, 0.0, 0.05)",0.0,0.0,0.0,"(0.0, 0.0, 0.0, 0.0, 0.0, 0.0, 0.0, 0.0, 0.0)"
2019/10/07/19:05:13.259312,313,1570442713,258932183,gyro_link,0.0,0.0,-0.890093512728,0.455777948787,"(1.7976931348623157e+308, 0.0, 0.0, 0.0, 1.7976931348623157e+308, 0.0, 0.0, 0.0, 0.05)",0.0,0.0,0.0155334303427,"(1.7976931348623157e+308, 0.0, 0.0, 0.0, 1.7976931348623157e+308, 0.0, 0.0, 0.0, 0.05)",0.0,0.0,0.0,"(0.0, 0.0, 0.0, 0.0, 0.0, 0.0, 0.0, 0.0, 0.0)"
2019/10/07/19:05:13.316984,314,1570442713,316666033,gyro_link,0.0,0.0,-0.890411488826,0.455156435269,"(1.7976931348623157e+308, 0.0, 0.0, 0.0, 1.7976931348623157e+308, 0.0, 0.0, 0.0, 0.05)",0.0,0.0,0.0185004900711,"(1.7976931348623157e+308, 0.0, 0.0, 0.0, 1.7976931348623157e+308, 0.0, 0.0, 0.0, 0.05)",0.0,0.0,0.0,"(0.0, 0.0, 0.0, 0.0, 0.0, 0.0, 0.0, 0.0, 0.0)"
2019/10/07/19:05:13.339190,315,1570442713,338824645,gyro_link,0.0,0.0,-0.890292298637,0.455389528851,"(1.7976931348623157e+308, 0.0, 0.0, 0.0, 1.7976931348623157e+308, 0.0, 0.0, 0.0, 0.05)",0.0,0.0,0.0247836753783,"(1.7976931348623157e+308, 0.0, 0.0, 0.0, 1.7976931348623157e+308, 0.0, 0.0, 0.0, 0.05)",0.0,0.0,0.0,"(0.0, 0.0, 0.0, 0.0, 0.0, 0.0, 0.0, 0.0, 0.0)"
2019/10/07/19:05:13.397254,316,1570442713,396582411,gyro_link,0.0,0.0,-0.890530617987,0.454923310491,"(1.7976931348623157e+308, 0.0, 0.0, 0.0, 1.7976931348623157e+308, 0.0, 0.0, 0.0, 0.05)",0.0,0.0,-0.0174532925199,"(1.7976931348623157e+308, 0.0, 0.0, 0.0, 1.7976931348623157e+308, 0.0, 0.0, 0.0, 0.05)",0.0,0.0,0.0,"(0.0, 0.0, 0.0, 0.0, 0.0, 0.0, 0.0, 0.0, 0.0)"
2019/10/07/19:05:13.419212,317,1570442713,418805955,gyro_link,0.0,0.0,-0.890490915048,0.455001022216,"(1.7976931348623157e+308, 0.0, 0.0, 0.0, 1.7976931348623157e+308, 0.0, 0.0, 0.0, 0.05)",0.0,0.0,0.0151843644924,"(1.7976931348623157e+308, 0.0, 0.0, 0.0, 1.7976931348623157e+308, 0.0, 0.0, 0.0, 0.05)",0.0,0.0,0.0,"(0.0, 0.0, 0.0, 0.0, 0.0, 0.0, 0.0, 0.0, 0.0)"
2019/10/07/19:05:13.477075,318,1570442713,476555800,gyro_link,0.0,0.0,-0.890610003519,0.454767876649,"(1.7976931348623157e+308, 0.0, 0.0, 0.0, 1.7976931348623157e+308, 0.0, 0.0, 0.0, 0.05)",0.0,0.0,-0.0345575191895,"(1.7976931348623157e+308, 0.0, 0.0, 0.0, 1.7976931348623157e+308, 0.0, 0.0, 0.0, 0.05)",0.0,0.0,0.0,"(0.0, 0.0, 0.0, 0.0, 0.0, 0.0, 0.0, 0.0, 0.0)"
2019/10/07/19:05:13.499066,319,1570442713,498511996,gyro_link,0.0,0.0,-0.890649686112,0.454690154533,"(1.7976931348623157e+308, 0.0, 0.0, 0.0, 1.7976931348623157e+308, 0.0, 0.0, 0.0, 0.05)",0.0,0.0,-0.00628318530718,"(1.7976931348623157e+308, 0.0, 0.0, 0.0, 1.7976931348623157e+308, 0.0, 0.0, 0.0, 0.05)",0.0,0.0,0.0,"(0.0, 0.0, 0.0, 0.0, 0.0, 0.0, 0.0, 0.0, 0.0)"
2019/10/07/19:05:13.558844,320,1570442713,558344393,gyro_link,0.0,0.0,-0.890173047429,0.455622591221,"(1.7976931348623157e+308, 0.0, 0.0, 0.0, 1.7976931348623157e+308, 0.0, 0.0, 0.0, 0.05)",0.0,0.0,-0.00837758040957,"(1.7976931348623157e+308, 0.0, 0.0, 0.0, 1.7976931348623157e+308, 0.0, 0.0, 0.0, 0.05)",0.0,0.0,0.0,"(0.0, 0.0, 0.0, 0.0, 0.0, 0.0, 0.0, 0.0, 0.0)"
2019/10/07/19:05:13.616634,321,1570442713,616084684,gyro_link,0.0,0.0,-0.890451205327,0.455078730475,"(1.7976931348623157e+308, 0.0, 0.0, 0.0, 1.7976931348623157e+308, 0.0, 0.0, 0.0, 0.05)",0.0,0.0,0.00349065850399,"(1.7976931348623157e+308, 0.0, 0.0, 0.0, 1.7976931348623157e+308, 0.0, 0.0, 0.0, 0.05)",0.0,0.0,0.0,"(0.0, 0.0, 0.0, 0.0, 0.0, 0.0, 0.0, 0.0, 0.0)"
2019/10/07/19:05:13.638954,322,1570442713,638524712,gyro_link,0.0,0.0,-0.890451205327,0.455078730475,"(1.7976931348623157e+308, 0.0, 0.0, 0.0, 1.7976931348623157e+308, 0.0, 0.0, 0.0, 0.05)",0.0,0.0,-0.00645771823238,"(1.7976931348623157e+308, 0.0, 0.0, 0.0, 1.7976931348623157e+308, 0.0, 0.0, 0.0, 0.05)",0.0,0.0,0.0,"(0.0, 0.0, 0.0, 0.0, 0.0, 0.0, 0.0, 0.0, 0.0)"
2019/10/07/19:05:13.696557,323,1570442713,696039567,gyro_link,0.0,0.0,-0.890649686112,0.454690154533,"(1.7976931348623157e+308, 0.0, 0.0, 0.0, 1.7976931348623157e+308, 0.0, 0.0, 0.0, 0.05)",0.0,0.0,0.0251327412287,"(1.7976931348623157e+308, 0.0, 0.0, 0.0, 1.7976931348623157e+308, 0.0, 0.0, 0.0, 0.05)",0.0,0.0,0.0,"(0.0, 0.0, 0.0, 0.0, 0.0, 0.0, 0.0, 0.0, 0.0)"
2019/10/07/19:05:13.718693,324,1570442713,718070507,gyro_link,0.0,0.0,-0.890451205327,0.455078730475,"(1.7976931348623157e+308, 0.0, 0.0, 0.0, 1.7976931348623157e+308, 0.0, 0.0, 0.0, 0.05)",0.0,0.0,0.0570722665402,"(1.7976931348623157e+308, 0.0, 0.0, 0.0, 1.7976931348623157e+308, 0.0, 0.0, 0.0, 0.05)",0.0,0.0,0.0,"(0.0, 0.0, 0.0, 0.0, 0.0, 0.0, 0.0, 0.0, 0.0)"
2019/10/07/19:05:13.778214,325,1570442713,777868404,gyro_link,0.0,0.0,-0.890451205327,0.455078730475,"(1.7976931348623157e+308, 0.0, 0.0, 0.0, 1.7976931348623157e+308, 0.0, 0.0, 0.0, 0.05)",0.0,0.0,-0.0368264472171,"(1.7976931348623157e+308, 0.0, 0.0, 0.0, 1.7976931348623157e+308, 0.0, 0.0, 0.0, 0.05)",0.0,0.0,0.0,"(0.0, 0.0, 0.0, 0.0, 0.0, 0.0, 0.0, 0.0, 0.0)"
2019/10/07/19:05:13.838545,326,1570442713,837797776,gyro_link,0.0,0.0,-0.890490915048,0.455001022216,"(1.7976931348623157e+308, 0.0, 0.0, 0.0, 1.7976931348623157e+308, 0.0, 0.0, 0.0, 0.05)",0.0,0.0,-0.0214675497995,"(1.7976931348623157e+308, 0.0, 0.0, 0.0, 1.7976931348623157e+308, 0.0, 0.0, 0.0, 0.05)",0.0,0.0,0.0,"(0.0, 0.0, 0.0, 0.0, 0.0, 0.0, 0.0, 0.0, 0.0)"
2019/10/07/19:05:13.898226,327,1570442713,897664424,gyro_link,0.0,0.0,-0.890768693192,0.454456967411,"(1.7976931348623157e+308, 0.0, 0.0, 0.0, 1.7976931348623157e+308, 0.0, 0.0, 0.0, 0.05)",0.0,0.0,0.00698131700798,"(1.7976931348623157e+308, 0.0, 0.0, 0.0, 1.7976931348623157e+308, 0.0, 0.0, 0.0, 0.05)",0.0,0.0,0.0,"(0.0, 0.0, 0.0, 0.0, 0.0, 0.0, 0.0, 0.0, 0.0)"
2019/10/07/19:05:13.958081,328,1570442713,957460975,gyro_link,0.0,0.0,-0.890729030948,0.454534699914,"(1.7976931348623157e+308, 0.0, 0.0, 0.0, 1.7976931348623157e+308, 0.0, 0.0, 0.0, 0.05)",0.0,0.0,-0.0357792496659,"(1.7976931348623157e+308, 0.0, 0.0, 0.0, 1.7976931348623157e+308, 0.0, 0.0, 0.0, 0.05)",0.0,0.0,0.0,"(0.0, 0.0, 0.0, 0.0, 0.0, 0.0, 0.0, 0.0, 0.0)"
2019/10/07/19:05:14.017949,329,1570442714,17406350,gyro_link,0.0,0.0,-0.890610003519,0.454767876649,"(1.7976931348623157e+308, 0.0, 0.0, 0.0, 1.7976931348623157e+308, 0.0, 0.0, 0.0, 0.05)",0.0,0.0,0.0274016692563,"(1.7976931348623157e+308, 0.0, 0.0, 0.0, 1.7976931348623157e+308, 0.0, 0.0, 0.0, 0.05)",0.0,0.0,0.0,"(0.0, 0.0, 0.0, 0.0, 0.0, 0.0, 0.0, 0.0, 0.0)"
