time,.header.seq,.header.stamp.secs,.header.stamp.nsecs,.header.frame_id,.orientation.x,.orientation.y,.orientation.z,.orientation.w,.orientation_covariance,.angular_velocity.x,.angular_velocity.y,.angular_velocity.z,.angular_velocity_covariance,.linear_acceleration.x,.linear_acceleration.y,.linear_acceleration.z,.linear_acceleration_covariance
2019/10/07/19:23:44.235740,9728,1570443824,234767689,gyro_link,0.0,0.0,0.636818633528,0.77101363671,"(1.7976931348623157e+308, 0.0, 0.0, 0.0, 1.7976931348623157e+308, 0.0, 0.0, 0.0, 0.05)",0.0,0.0,0.0,"(1.7976931348623157e+308, 0.0, 0.0, 0.0, 1.7976931348623157e+308, 0.0, 0.0, 0.0, 0.05)",0.0,0.0,0.0,"(0.0, 0.0, 0.0, 0.0, 0.0, 0.0, 0.0, 0.0, 0.0)"
2019/10/07/19:23:44.295229,9729,1570443824,294898709,gyro_link,0.0,0.0,0.636818633528,0.77101363671,"(1.7976931348623157e+308, 0.0, 0.0, 0.0, 1.7976931348623157e+308, 0.0, 0.0, 0.0, 0.05)",0.0,0.0,0.0,"(1.7976931348623157e+308, 0.0, 0.0, 0.0, 1.7976931348623157e+308, 0.0, 0.0, 0.0, 0.05)",0.0,0.0,0.0,"(0.0, 0.0, 0.0, 0.0, 0.0, 0.0, 0.0, 0.0, 0.0)"
2019/10/07/19:23:44.355108,9730,1570443824,354708035,gyro_link,0.0,0.0,0.636818633528,0.77101363671,"(1.7976931348623157e+308, 0.0, 0.0, 0.0, 1.7976931348623157e+308, 0.0, 0.0, 0.0, 0.05)",0.0,0.0,0.0,"(1.7976931348623157e+308, 0.0, 0.0, 0.0, 1.7976931348623157e+308, 0.0, 0.0, 0.0, 0.05)",0.0,0.0,0.0,"(0.0, 0.0, 0.0, 0.0, 0.0, 0.0, 0.0, 0.0, 0.0)"
2019/10/07/19:23:44.415259,9731,1570443824,414783713,gyro_link,0.0,0.0,0.636818633528,0.77101363671,"(1.7976931348623157e+308, 0.0, 0.0, 0.0, 1.7976931348623157e+308, 0.0, 0.0, 0.0, 0.05)",0.0,0.0,0.0,"(1.7976931348623157e+308, 0.0, 0.0, 0.0, 1.7976931348623157e+308, 0.0, 0.0, 0.0, 0.05)",0.0,0.0,0.0,"(0.0, 0.0, 0.0, 0.0, 0.0, 0.0, 0.0, 0.0, 0.0)"
2019/10/07/19:23:44.475150,9732,1570443824,474754378,gyro_link,0.0,0.0,0.636818633528,0.77101363671,"(1.7976931348623157e+308, 0.0, 0.0, 0.0, 1.7976931348623157e+308, 0.0, 0.0, 0.0, 0.05)",0.0,0.0,0.0,"(1.7976931348623157e+308, 0.0, 0.0, 0.0, 1.7976931348623157e+308, 0.0, 0.0, 0.0, 0.05)",0.0,0.0,0.0,"(0.0, 0.0, 0.0, 0.0, 0.0, 0.0, 0.0, 0.0, 0.0)"
2019/10/07/19:23:44.535309,9733,1570443824,534708935,gyro_link,0.0,0.0,0.636818633528,0.77101363671,"(1.7976931348623157e+308, 0.0, 0.0, 0.0, 1.7976931348623157e+308, 0.0, 0.0, 0.0, 0.05)",0.0,0.0,0.0,"(1.7976931348623157e+308, 0.0, 0.0, 0.0, 1.7976931348623157e+308, 0.0, 0.0, 0.0, 0.05)",0.0,0.0,0.0,"(0.0, 0.0, 0.0, 0.0, 0.0, 0.0, 0.0, 0.0, 0.0)"
2019/10/07/19:23:44.594101,9734,1570443824,593445539,gyro_link,0.0,0.0,0.636818633528,0.77101363671,"(1.7976931348623157e+308, 0.0, 0.0, 0.0, 1.7976931348623157e+308, 0.0, 0.0, 0.0, 0.05)",0.0,0.0,0.0,"(1.7976931348623157e+308, 0.0, 0.0, 0.0, 1.7976931348623157e+308, 0.0, 0.0, 0.0, 0.05)",0.0,0.0,0.0,"(0.0, 0.0, 0.0, 0.0, 0.0, 0.0, 0.0, 0.0, 0.0)"
2019/10/07/19:23:44.695099,9735,1570443824,694245733,gyro_link,0.0,0.0,0.636818633528,0.77101363671,"(1.7976931348623157e+308, 0.0, 0.0, 0.0, 1.7976931348623157e+308, 0.0, 0.0, 0.0, 0.05)",0.0,0.0,0.0,"(1.7976931348623157e+308, 0.0, 0.0, 0.0, 1.7976931348623157e+308, 0.0, 0.0, 0.0, 0.05)",0.0,0.0,0.0,"(0.0, 0.0, 0.0, 0.0, 0.0, 0.0, 0.0, 0.0, 0.0)"
2019/10/07/19:23:44.754573,9736,1570443824,753901427,gyro_link,0.0,0.0,0.636818633528,0.77101363671,"(1.7976931348623157e+308, 0.0, 0.0, 0.0, 1.7976931348623157e+308, 0.0, 0.0, 0.0, 0.05)",0.0,0.0,0.0,"(1.7976931348623157e+308, 0.0, 0.0, 0.0, 1.7976931348623157e+308, 0.0, 0.0, 0.0, 0.05)",0.0,0.0,0.0,"(0.0, 0.0, 0.0, 0.0, 0.0, 0.0, 0.0, 0.0, 0.0)"
2019/10/07/19:23:44.814528,9737,1570443824,814057990,gyro_link,0.0,0.0,0.636818633528,0.77101363671,"(1.7976931348623157e+308, 0.0, 0.0, 0.0, 1.7976931348623157e+308, 0.0, 0.0, 0.0, 0.05)",0.0,0.0,0.0,"(1.7976931348623157e+308, 0.0, 0.0, 0.0, 1.7976931348623157e+308, 0.0, 0.0, 0.0, 0.05)",0.0,0.0,0.0,"(0.0, 0.0, 0.0, 0.0, 0.0, 0.0, 0.0, 0.0, 0.0)"
2019/10/07/19:23:44.874611,9738,1570443824,873870006,gyro_link,0.0,0.0,0.636818633528,0.77101363671,"(1.7976931348623157e+308, 0.0, 0.0, 0.0, 1.7976931348623157e+308, 0.0, 0.0, 0.0, 0.05)",0.0,0.0,0.0,"(1.7976931348623157e+308, 0.0, 0.0, 0.0, 1.7976931348623157e+308, 0.0, 0.0, 0.0, 0.05)",0.0,0.0,0.0,"(0.0, 0.0, 0.0, 0.0, 0.0, 0.0, 0.0, 0.0, 0.0)"
2019/10/07/19:23:44.933990,9739,1570443824,933577341,gyro_link,0.0,0.0,0.636818633528,0.77101363671,"(1.7976931348623157e+308, 0.0, 0.0, 0.0, 1.7976931348623157e+308, 0.0, 0.0, 0.0, 0.05)",0.0,0.0,0.0,"(1.7976931348623157e+308, 0.0, 0.0, 0.0, 1.7976931348623157e+308, 0.0, 0.0, 0.0, 0.05)",0.0,0.0,0.0,"(0.0, 0.0, 0.0, 0.0, 0.0, 0.0, 0.0, 0.0, 0.0)"
2019/10/07/19:23:44.993372,9740,1570443824,992733751,gyro_link,0.0,0.0,0.636818633528,0.77101363671,"(1.7976931348623157e+308, 0.0, 0.0, 0.0, 1.7976931348623157e+308, 0.0, 0.0, 0.0, 0.05)",0.0,0.0,0.0,"(1.7976931348623157e+308, 0.0, 0.0, 0.0, 1.7976931348623157e+308, 0.0, 0.0, 0.0, 0.05)",0.0,0.0,0.0,"(0.0, 0.0, 0.0, 0.0, 0.0, 0.0, 0.0, 0.0, 0.0)"
2019/10/07/19:23:45.050924,9741,1570443825,50394437,gyro_link,0.0,0.0,0.636818633528,0.77101363671,"(1.7976931348623157e+308, 0.0, 0.0, 0.0, 1.7976931348623157e+308, 0.0, 0.0, 0.0, 0.05)",0.0,0.0,0.0,"(1.7976931348623157e+308, 0.0, 0.0, 0.0, 1.7976931348623157e+308, 0.0, 0.0, 0.0, 0.05)",0.0,0.0,0.0,"(0.0, 0.0, 0.0, 0.0, 0.0, 0.0, 0.0, 0.0, 0.0)"
2019/10/07/19:23:45.072613,9742,1570443825,72282660,gyro_link,0.0,0.0,0.636818633528,0.77101363671,"(1.7976931348623157e+308, 0.0, 0.0, 0.0, 1.7976931348623157e+308, 0.0, 0.0, 0.0, 0.05)",0.0,0.0,0.0,"(1.7976931348623157e+308, 0.0, 0.0, 0.0, 1.7976931348623157e+308, 0.0, 0.0, 0.0, 0.05)",0.0,0.0,0.0,"(0.0, 0.0, 0.0, 0.0, 0.0, 0.0, 0.0, 0.0, 0.0)"
2019/10/07/19:23:45.130713,9743,1570443825,130217492,gyro_link,0.0,0.0,0.636818633528,0.77101363671,"(1.7976931348623157e+308, 0.0, 0.0, 0.0, 1.7976931348623157e+308, 0.0, 0.0, 0.0, 0.05)",0.0,0.0,0.0,"(1.7976931348623157e+308, 0.0, 0.0, 0.0, 1.7976931348623157e+308, 0.0, 0.0, 0.0, 0.05)",0.0,0.0,0.0,"(0.0, 0.0, 0.0, 0.0, 0.0, 0.0, 0.0, 0.0, 0.0)"
2019/10/07/19:23:45.152937,9744,1570443825,152454561,gyro_link,0.0,0.0,0.636818633528,0.77101363671,"(1.7976931348623157e+308, 0.0, 0.0, 0.0, 1.7976931348623157e+308, 0.0, 0.0, 0.0, 0.05)",0.0,0.0,0.0,"(1.7976931348623157e+308, 0.0, 0.0, 0.0, 1.7976931348623157e+308, 0.0, 0.0, 0.0, 0.05)",0.0,0.0,0.0,"(0.0, 0.0, 0.0, 0.0, 0.0, 0.0, 0.0, 0.0, 0.0)"
2019/10/07/19:23:45.212877,9745,1570443825,212161761,gyro_link,0.0,0.0,0.636818633528,0.77101363671,"(1.7976931348623157e+308, 0.0, 0.0, 0.0, 1.7976931348623157e+308, 0.0, 0.0, 0.0, 0.05)",0.0,0.0,-0.000523598775598,"(1.7976931348623157e+308, 0.0, 0.0, 0.0, 1.7976931348623157e+308, 0.0, 0.0, 0.0, 0.05)",0.0,0.0,0.0,"(0.0, 0.0, 0.0, 0.0, 0.0, 0.0, 0.0, 0.0, 0.0)"
2019/10/07/19:23:45.272573,9746,1570443825,272131751,gyro_link,0.0,0.0,0.636818633528,0.77101363671,"(1.7976931348623157e+308, 0.0, 0.0, 0.0, 1.7976931348623157e+308, 0.0, 0.0, 0.0, 0.05)",0.0,0.0,-0.00226892802759,"(1.7976931348623157e+308, 0.0, 0.0, 0.0, 1.7976931348623157e+308, 0.0, 0.0, 0.0, 0.05)",0.0,0.0,0.0,"(0.0, 0.0, 0.0, 0.0, 0.0, 0.0, 0.0, 0.0, 0.0)"
2019/10/07/19:23:45.332329,9747,1570443825,331960299,gyro_link,0.0,0.0,0.636818633528,0.77101363671,"(1.7976931348623157e+308, 0.0, 0.0, 0.0, 1.7976931348623157e+308, 0.0, 0.0, 0.0, 0.05)",0.0,0.0,0.000698131700798,"(1.7976931348623157e+308, 0.0, 0.0, 0.0, 1.7976931348623157e+308, 0.0, 0.0, 0.0, 0.05)",0.0,0.0,0.0,"(0.0, 0.0, 0.0, 0.0, 0.0, 0.0, 0.0, 0.0, 0.0)"
2019/10/07/19:23:45.392269,9748,1570443825,391885818,gyro_link,0.0,0.0,0.636549460205,0.77123588137,"(1.7976931348623157e+308, 0.0, 0.0, 0.0, 1.7976931348623157e+308, 0.0, 0.0, 0.0, 0.05)",0.0,0.0,-0.0010471975512,"(1.7976931348623157e+308, 0.0, 0.0, 0.0, 1.7976931348623157e+308, 0.0, 0.0, 0.0, 0.05)",0.0,0.0,0.0,"(0.0, 0.0, 0.0, 0.0, 0.0, 0.0, 0.0, 0.0, 0.0)"
2019/10/07/19:23:45.451906,9749,1570443825,451477041,gyro_link,0.0,0.0,0.636616760808,0.771180329014,"(1.7976931348623157e+308, 0.0, 0.0, 0.0, 1.7976931348623157e+308, 0.0, 0.0, 0.0, 0.05)",0.0,0.0,0.0102974425868,"(1.7976931348623157e+308, 0.0, 0.0, 0.0, 1.7976931348623157e+308, 0.0, 0.0, 0.0, 0.05)",0.0,0.0,0.0,"(0.0, 0.0, 0.0, 0.0, 0.0, 0.0, 0.0, 0.0, 0.0)"
2019/10/07/19:23:45.512095,9750,1570443825,511415466,gyro_link,0.0,0.0,0.636684056564,0.771124770785,"(1.7976931348623157e+308, 0.0, 0.0, 0.0, 1.7976931348623157e+308, 0.0, 0.0, 0.0, 0.05)",0.0,0.0,0.00523598775598,"(1.7976931348623157e+308, 0.0, 0.0, 0.0, 1.7976931348623157e+308, 0.0, 0.0, 0.0, 0.05)",0.0,0.0,0.0,"(0.0, 0.0, 0.0, 0.0, 0.0, 0.0, 0.0, 0.0, 0.0)"
2019/10/07/19:23:45.572150,9751,1570443825,571438156,gyro_link,0.0,0.0,0.636616760808,0.771180329014,"(1.7976931348623157e+308, 0.0, 0.0, 0.0, 1.7976931348623157e+308, 0.0, 0.0, 0.0, 0.05)",0.0,0.0,-0.0181514242207,"(1.7976931348623157e+308, 0.0, 0.0, 0.0, 1.7976931348623157e+308, 0.0, 0.0, 0.0, 0.05)",0.0,0.0,0.0,"(0.0, 0.0, 0.0, 0.0, 0.0, 0.0, 0.0, 0.0, 0.0)"
2019/10/07/19:23:45.631870,9752,1570443825,631354265,gyro_link,0.0,0.0,0.636347529312,0.771402503197,"(1.7976931348623157e+308, 0.0, 0.0, 0.0, 1.7976931348623157e+308, 0.0, 0.0, 0.0, 0.05)",0.0,0.0,0.00575958653158,"(1.7976931348623157e+308, 0.0, 0.0, 0.0, 1.7976931348623157e+308, 0.0, 0.0, 0.0, 0.05)",0.0,0.0,0.0,"(0.0, 0.0, 0.0, 0.0, 0.0, 0.0, 0.0, 0.0, 0.0)"
2019/10/07/19:23:45.691635,9753,1570443825,691235607,gyro_link,0.0,0.0,0.636280209321,0.771458032058,"(1.7976931348623157e+308, 0.0, 0.0, 0.0, 1.7976931348623157e+308, 0.0, 0.0, 0.0, 0.05)",0.0,0.0,-0.00750491578358,"(1.7976931348623157e+308, 0.0, 0.0, 0.0, 1.7976931348623157e+308, 0.0, 0.0, 0.0, 0.05)",0.0,0.0,0.0,"(0.0, 0.0, 0.0, 0.0, 0.0, 0.0, 0.0, 0.0, 0.0)"
2019/10/07/19:23:45.751638,9754,1570443825,751222908,gyro_link,0.0,0.0,0.635876187638,0.771791081831,"(1.7976931348623157e+308, 0.0, 0.0, 0.0, 1.7976931348623157e+308, 0.0, 0.0, 0.0, 0.05)",0.0,0.0,-0.0265290046303,"(1.7976931348623157e+308, 0.0, 0.0, 0.0, 1.7976931348623157e+308, 0.0, 0.0, 0.0, 0.05)",0.0,0.0,0.0,"(0.0, 0.0, 0.0, 0.0, 0.0, 0.0, 0.0, 0.0, 0.0)"
2019/10/07/19:23:45.811646,9755,1570443825,811108553,gyro_link,0.0,0.0,0.635471991627,0.772123920014,"(1.7976931348623157e+308, 0.0, 0.0, 0.0, 1.7976931348623157e+308, 0.0, 0.0, 0.0, 0.05)",0.0,0.0,0.00261799387799,"(1.7976931348623157e+308, 0.0, 0.0, 0.0, 1.7976931348623157e+308, 0.0, 0.0, 0.0, 0.05)",0.0,0.0,0.0,"(0.0, 0.0, 0.0, 0.0, 0.0, 0.0, 0.0, 0.0, 0.0)"
2019/10/07/19:23:45.871760,9756,1570443825,871208819,gyro_link,0.0,0.0,0.635674111417,0.771957527377,"(1.7976931348623157e+308, 0.0, 0.0, 0.0, 1.7976931348623157e+308, 0.0, 0.0, 0.0, 0.05)",0.0,0.0,0.00488692190558,"(1.7976931348623157e+308, 0.0, 0.0, 0.0, 1.7976931348623157e+308, 0.0, 0.0, 0.0, 0.05)",0.0,0.0,0.0,"(0.0, 0.0, 0.0, 0.0, 0.0, 0.0, 0.0, 0.0, 0.0)"
2019/10/07/19:23:45.931572,9757,1570443825,931125385,gyro_link,0.0,0.0,0.635674111417,0.771957527377,"(1.7976931348623157e+308, 0.0, 0.0, 0.0, 1.7976931348623157e+308, 0.0, 0.0, 0.0, 0.05)",0.0,0.0,0.0,"(1.7976931348623157e+308, 0.0, 0.0, 0.0, 1.7976931348623157e+308, 0.0, 0.0, 0.0, 0.05)",0.0,0.0,0.0,"(0.0, 0.0, 0.0, 0.0, 0.0, 0.0, 0.0, 0.0, 0.0)"
2019/10/07/19:23:45.991382,9758,1570443825,991024933,gyro_link,0.0,0.0,0.635337220902,0.772234819039,"(1.7976931348623157e+308, 0.0, 0.0, 0.0, 1.7976931348623157e+308, 0.0, 0.0, 0.0, 0.05)",0.0,0.0,-0.0251327412287,"(1.7976931348623157e+308, 0.0, 0.0, 0.0, 1.7976931348623157e+308, 0.0, 0.0, 0.0, 0.05)",0.0,0.0,0.0,"(0.0, 0.0, 0.0, 0.0, 0.0, 0.0, 0.0, 0.0, 0.0)"
2019/10/07/19:23:46.051046,9759,1570443826,50577944,gyro_link,0.0,0.0,0.635337220902,0.772234819039,"(1.7976931348623157e+308, 0.0, 0.0, 0.0, 1.7976931348623157e+308, 0.0, 0.0, 0.0, 0.05)",0.0,0.0,0.00872664625997,"(1.7976931348623157e+308, 0.0, 0.0, 0.0, 1.7976931348623157e+308, 0.0, 0.0, 0.0, 0.05)",0.0,0.0,0.0,"(0.0, 0.0, 0.0, 0.0, 0.0, 0.0, 0.0, 0.0, 0.0)"
2019/10/07/19:23:46.110097,9760,1570443826,109769731,gyro_link,0.0,0.0,0.635404608684,0.772179372467,"(1.7976931348623157e+308, 0.0, 0.0, 0.0, 1.7976931348623157e+308, 0.0, 0.0, 0.0, 0.05)",0.0,0.0,-0.00575958653158,"(1.7976931348623157e+308, 0.0, 0.0, 0.0, 1.7976931348623157e+308, 0.0, 0.0, 0.0, 0.05)",0.0,0.0,0.0,"(0.0, 0.0, 0.0, 0.0, 0.0, 0.0, 0.0, 0.0, 0.0)"
2019/10/07/19:23:46.167877,9761,1570443826,167478919,gyro_link,0.0,0.0,0.635202430824,0.77234569454,"(1.7976931348623157e+308, 0.0, 0.0, 0.0, 1.7976931348623157e+308, 0.0, 0.0, 0.0, 0.05)",0.0,0.0,-0.00174532925199,"(1.7976931348623157e+308, 0.0, 0.0, 0.0, 1.7976931348623157e+308, 0.0, 0.0, 0.0, 0.05)",0.0,0.0,0.0,"(0.0, 0.0, 0.0, 0.0, 0.0, 0.0, 0.0, 0.0, 0.0)"
2019/10/07/19:23:46.190258,9762,1570443826,189851383,gyro_link,0.0,0.0,0.635202430824,0.77234569454,"(1.7976931348623157e+308, 0.0, 0.0, 0.0, 1.7976931348623157e+308, 0.0, 0.0, 0.0, 0.05)",0.0,0.0,0.0,"(1.7976931348623157e+308, 0.0, 0.0, 0.0, 1.7976931348623157e+308, 0.0, 0.0, 0.0, 0.05)",0.0,0.0,0.0,"(0.0, 0.0, 0.0, 0.0, 0.0, 0.0, 0.0, 0.0, 0.0)"
2019/10/07/19:23:46.247763,9763,1570443826,247324686,gyro_link,0.0,0.0,0.635135028529,0.772401123468,"(1.7976931348623157e+308, 0.0, 0.0, 0.0, 1.7976931348623157e+308, 0.0, 0.0, 0.0, 0.05)",0.0,0.0,-0.00558505360638,"(1.7976931348623157e+308, 0.0, 0.0, 0.0, 1.7976931348623157e+308, 0.0, 0.0, 0.0, 0.05)",0.0,0.0,0.0,"(0.0, 0.0, 0.0, 0.0, 0.0, 0.0, 0.0, 0.0, 0.0)"
2019/10/07/19:23:46.269647,9764,1570443826,268954686,gyro_link,0.0,0.0,0.635067621397,0.772456546514,"(1.7976931348623157e+308, 0.0, 0.0, 0.0, 1.7976931348623157e+308, 0.0, 0.0, 0.0, 0.05)",0.0,0.0,-0.00977384381117,"(1.7976931348623157e+308, 0.0, 0.0, 0.0, 1.7976931348623157e+308, 0.0, 0.0, 0.0, 0.05)",0.0,0.0,0.0,"(0.0, 0.0, 0.0, 0.0, 0.0, 0.0, 0.0, 0.0, 0.0)"
2019/10/07/19:23:46.327441,9765,1570443826,326906604,gyro_link,0.0,0.0,0.634932792625,0.772567374958,"(1.7976931348623157e+308, 0.0, 0.0, 0.0, 1.7976931348623157e+308, 0.0, 0.0, 0.0, 0.05)",0.0,0.0,-0.00383972435439,"(1.7976931348623157e+308, 0.0, 0.0, 0.0, 1.7976931348623157e+308, 0.0, 0.0, 0.0, 0.05)",0.0,0.0,0.0,"(0.0, 0.0, 0.0, 0.0, 0.0, 0.0, 0.0, 0.0, 0.0)"
2019/10/07/19:23:46.349413,9766,1570443826,348825575,gyro_link,0.0,0.0,0.634932792625,0.772567374958,"(1.7976931348623157e+308, 0.0, 0.0, 0.0, 1.7976931348623157e+308, 0.0, 0.0, 0.0, 0.05)",0.0,0.0,0.00558505360638,"(1.7976931348623157e+308, 0.0, 0.0, 0.0, 1.7976931348623157e+308, 0.0, 0.0, 0.0, 0.05)",0.0,0.0,0.0,"(0.0, 0.0, 0.0, 0.0, 0.0, 0.0, 0.0, 0.0, 0.0)"
2019/10/07/19:23:46.409439,9767,1570443826,408871107,gyro_link,0.0,0.0,0.635000209429,0.772511963678,"(1.7976931348623157e+308, 0.0, 0.0, 0.0, 1.7976931348623157e+308, 0.0, 0.0, 0.0, 0.05)",0.0,0.0,0.00174532925199,"(1.7976931348623157e+308, 0.0, 0.0, 0.0, 1.7976931348623157e+308, 0.0, 0.0, 0.0, 0.05)",0.0,0.0,0.0,"(0.0, 0.0, 0.0, 0.0, 0.0, 0.0, 0.0, 0.0, 0.0)"
2019/10/07/19:23:46.467215,9768,1570443826,466790339,gyro_link,0.0,0.0,0.634865370985,0.772622780355,"(1.7976931348623157e+308, 0.0, 0.0, 0.0, 1.7976931348623157e+308, 0.0, 0.0, 0.0, 0.05)",0.0,0.0,-0.0123918376892,"(1.7976931348623157e+308, 0.0, 0.0, 0.0, 1.7976931348623157e+308, 0.0, 0.0, 0.0, 0.05)",0.0,0.0,0.0,"(0.0, 0.0, 0.0, 0.0, 0.0, 0.0, 0.0, 0.0, 0.0)"
2019/10/07/19:23:46.489109,9769,1570443826,488723329,gyro_link,0.0,0.0,0.634865370985,0.772622780355,"(1.7976931348623157e+308, 0.0, 0.0, 0.0, 1.7976931348623157e+308, 0.0, 0.0, 0.0, 0.05)",0.0,0.0,-0.00488692190558,"(1.7976931348623157e+308, 0.0, 0.0, 0.0, 1.7976931348623157e+308, 0.0, 0.0, 0.0, 0.05)",0.0,0.0,0.0,"(0.0, 0.0, 0.0, 0.0, 0.0, 0.0, 0.0, 0.0, 0.0)"
2019/10/07/19:23:46.547021,9770,1570443826,546599993,gyro_link,0.0,0.0,0.634797944511,0.772678179868,"(1.7976931348623157e+308, 0.0, 0.0, 0.0, 1.7976931348623157e+308, 0.0, 0.0, 0.0, 0.05)",0.0,0.0,0.0013962634016,"(1.7976931348623157e+308, 0.0, 0.0, 0.0, 1.7976931348623157e+308, 0.0, 0.0, 0.0, 0.05)",0.0,0.0,0.0,"(0.0, 0.0, 0.0, 0.0, 0.0, 0.0, 0.0, 0.0, 0.0)"
2019/10/07/19:23:46.569032,9771,1570443826,568475162,gyro_link,0.0,0.0,0.634797944511,0.772678179868,"(1.7976931348623157e+308, 0.0, 0.0, 0.0, 1.7976931348623157e+308, 0.0, 0.0, 0.0, 0.05)",0.0,0.0,0.000349065850399,"(1.7976931348623157e+308, 0.0, 0.0, 0.0, 1.7976931348623157e+308, 0.0, 0.0, 0.0, 0.05)",0.0,0.0,0.0,"(0.0, 0.0, 0.0, 0.0, 0.0, 0.0, 0.0, 0.0, 0.0)"
2019/10/07/19:23:46.628793,9772,1570443826,628390854,gyro_link,0.0,0.0,0.634730513202,0.772733573497,"(1.7976931348623157e+308, 0.0, 0.0, 0.0, 1.7976931348623157e+308, 0.0, 0.0, 0.0, 0.05)",0.0,0.0,-0.00802851455917,"(1.7976931348623157e+308, 0.0, 0.0, 0.0, 1.7976931348623157e+308, 0.0, 0.0, 0.0, 0.05)",0.0,0.0,0.0,"(0.0, 0.0, 0.0, 0.0, 0.0, 0.0, 0.0, 0.0, 0.0)"
2019/10/07/19:23:46.688686,9773,1570443826,688318670,gyro_link,0.0,0.0,0.63466307706,0.772788961242,"(1.7976931348623157e+308, 0.0, 0.0, 0.0, 1.7976931348623157e+308, 0.0, 0.0, 0.0, 0.05)",0.0,0.0,0.00226892802759,"(1.7976931348623157e+308, 0.0, 0.0, 0.0, 1.7976931348623157e+308, 0.0, 0.0, 0.0, 0.05)",0.0,0.0,0.0,"(0.0, 0.0, 0.0, 0.0, 0.0, 0.0, 0.0, 0.0, 0.0)"
2019/10/07/19:23:46.748923,9774,1570443826,748277313,gyro_link,0.0,0.0,0.63466307706,0.772788961242,"(1.7976931348623157e+308, 0.0, 0.0, 0.0, 1.7976931348623157e+308, 0.0, 0.0, 0.0, 0.05)",0.0,0.0,-0.00994837673637,"(1.7976931348623157e+308, 0.0, 0.0, 0.0, 1.7976931348623157e+308, 0.0, 0.0, 0.0, 0.05)",0.0,0.0,0.0,"(0.0, 0.0, 0.0, 0.0, 0.0, 0.0, 0.0, 0.0, 0.0)"
2019/10/07/19:23:46.808756,9775,1570443826,808180289,gyro_link,0.0,0.0,0.634528190276,0.772899719074,"(1.7976931348623157e+308, 0.0, 0.0, 0.0, 1.7976931348623157e+308, 0.0, 0.0, 0.0, 0.05)",0.0,0.0,-0.0013962634016,"(1.7976931348623157e+308, 0.0, 0.0, 0.0, 1.7976931348623157e+308, 0.0, 0.0, 0.0, 0.05)",0.0,0.0,0.0,"(0.0, 0.0, 0.0, 0.0, 0.0, 0.0, 0.0, 0.0, 0.0)"
2019/10/07/19:23:46.868827,9776,1570443826,868038457,gyro_link,0.0,0.0,0.63466307706,0.772788961242,"(1.7976931348623157e+308, 0.0, 0.0, 0.0, 1.7976931348623157e+308, 0.0, 0.0, 0.0, 0.05)",0.0,0.0,0.00314159265359,"(1.7976931348623157e+308, 0.0, 0.0, 0.0, 1.7976931348623157e+308, 0.0, 0.0, 0.0, 0.05)",0.0,0.0,0.0,"(0.0, 0.0, 0.0, 0.0, 0.0, 0.0, 0.0, 0.0, 0.0)"
2019/10/07/19:23:46.928291,9777,1570443826,927768248,gyro_link,0.0,0.0,0.634460739636,0.772955089162,"(1.7976931348623157e+308, 0.0, 0.0, 0.0, 1.7976931348623157e+308, 0.0, 0.0, 0.0, 0.05)",0.0,0.0,-0.00558505360638,"(1.7976931348623157e+308, 0.0, 0.0, 0.0, 1.7976931348623157e+308, 0.0, 0.0, 0.0, 0.05)",0.0,0.0,0.0,"(0.0, 0.0, 0.0, 0.0, 0.0, 0.0, 0.0, 0.0, 0.0)"
2019/10/07/19:23:46.988220,9778,1570443826,987815737,gyro_link,0.0,0.0,0.634393284164,0.773010453363,"(1.7976931348623157e+308, 0.0, 0.0, 0.0, 1.7976931348623157e+308, 0.0, 0.0, 0.0, 0.05)",0.0,0.0,-0.00593411945678,"(1.7976931348623157e+308, 0.0, 0.0, 0.0, 1.7976931348623157e+308, 0.0, 0.0, 0.0, 0.05)",0.0,0.0,0.0,"(0.0, 0.0, 0.0, 0.0, 0.0, 0.0, 0.0, 0.0, 0.0)"
2019/10/07/19:23:47.048128,9779,1570443827,47536465,gyro_link,0.0,0.0,0.634258358726,0.773121164104,"(1.7976931348623157e+308, 0.0, 0.0, 0.0, 1.7976931348623157e+308, 0.0, 0.0, 0.0, 0.05)",0.0,0.0,-0.000523598775598,"(1.7976931348623157e+308, 0.0, 0.0, 0.0, 1.7976931348623157e+308, 0.0, 0.0, 0.0, 0.05)",0.0,0.0,0.0,"(0.0, 0.0, 0.0, 0.0, 0.0, 0.0, 0.0, 0.0, 0.0)"
2019/10/07/19:23:47.107937,9780,1570443827,107412348,gyro_link,0.0,0.0,0.634393284164,0.773010453363,"(1.7976931348623157e+308, 0.0, 0.0, 0.0, 1.7976931348623157e+308, 0.0, 0.0, 0.0, 0.05)",0.0,0.0,-0.00191986217719,"(1.7976931348623157e+308, 0.0, 0.0, 0.0, 1.7976931348623157e+308, 0.0, 0.0, 0.0, 0.05)",0.0,0.0,0.0,"(0.0, 0.0, 0.0, 0.0, 0.0, 0.0, 0.0, 0.0, 0.0)"
2019/10/07/19:23:47.167918,9781,1570443827,167414163,gyro_link,0.0,0.0,0.634393284164,0.773010453363,"(1.7976931348623157e+308, 0.0, 0.0, 0.0, 1.7976931348623157e+308, 0.0, 0.0, 0.0, 0.05)",0.0,0.0,0.00541052068118,"(1.7976931348623157e+308, 0.0, 0.0, 0.0, 1.7976931348623157e+308, 0.0, 0.0, 0.0, 0.05)",0.0,0.0,0.0,"(0.0, 0.0, 0.0, 0.0, 0.0, 0.0, 0.0, 0.0, 0.0)"
2019/10/07/19:23:47.228008,9782,1570443827,227287884,gyro_link,0.0,0.0,0.63432582386,0.773065811677,"(1.7976931348623157e+308, 0.0, 0.0, 0.0, 1.7976931348623157e+308, 0.0, 0.0, 0.0, 0.05)",0.0,0.0,-0.00977384381117,"(1.7976931348623157e+308, 0.0, 0.0, 0.0, 1.7976931348623157e+308, 0.0, 0.0, 0.0, 0.05)",0.0,0.0,0.0,"(0.0, 0.0, 0.0, 0.0, 0.0, 0.0, 0.0, 0.0, 0.0)"
2019/10/07/19:23:47.287788,9783,1570443827,287269302,gyro_link,0.0,0.0,0.634123413968,0.773231851295,"(1.7976931348623157e+308, 0.0, 0.0, 0.0, 1.7976931348623157e+308, 0.0, 0.0, 0.0, 0.05)",0.0,0.0,-0.00436332312999,"(1.7976931348623157e+308, 0.0, 0.0, 0.0, 1.7976931348623157e+308, 0.0, 0.0, 0.0, 0.05)",0.0,0.0,0.0,"(0.0, 0.0, 0.0, 0.0, 0.0, 0.0, 0.0, 0.0, 0.0)"
2019/10/07/19:23:47.346655,9784,1570443827,346120394,gyro_link,0.0,0.0,0.634190888762,0.773176510644,"(1.7976931348623157e+308, 0.0, 0.0, 0.0, 1.7976931348623157e+308, 0.0, 0.0, 0.0, 0.05)",0.0,0.0,0.00157079632679,"(1.7976931348623157e+308, 0.0, 0.0, 0.0, 1.7976931348623157e+308, 0.0, 0.0, 0.0, 0.05)",0.0,0.0,0.0,"(0.0, 0.0, 0.0, 0.0, 0.0, 0.0, 0.0, 0.0, 0.0)"
2019/10/07/19:23:47.404414,9785,1570443827,403951593,gyro_link,0.0,0.0,0.634055934345,0.773287186058,"(1.7976931348623157e+308, 0.0, 0.0, 0.0, 1.7976931348623157e+308, 0.0, 0.0, 0.0, 0.05)",0.0,0.0,-0.00610865238198,"(1.7976931348623157e+308, 0.0, 0.0, 0.0, 1.7976931348623157e+308, 0.0, 0.0, 0.0, 0.05)",0.0,0.0,0.0,"(0.0, 0.0, 0.0, 0.0, 0.0, 0.0, 0.0, 0.0, 0.0)"
2019/10/07/19:23:47.426408,9786,1570443827,426050519,gyro_link,0.0,0.0,0.633988449894,0.773342514932,"(1.7976931348623157e+308, 0.0, 0.0, 0.0, 1.7976931348623157e+308, 0.0, 0.0, 0.0, 0.05)",0.0,0.0,-0.000174532925199,"(1.7976931348623157e+308, 0.0, 0.0, 0.0, 1.7976931348623157e+308, 0.0, 0.0, 0.0, 0.05)",0.0,0.0,0.0,"(0.0, 0.0, 0.0, 0.0, 0.0, 0.0, 0.0, 0.0, 0.0)"
2019/10/07/19:23:47.484250,9787,1570443827,483748667,gyro_link,0.0,0.0,0.634055934345,0.773287186058,"(1.7976931348623157e+308, 0.0, 0.0, 0.0, 1.7976931348623157e+308, 0.0, 0.0, 0.0, 0.05)",0.0,0.0,-0.00296705972839,"(1.7976931348623157e+308, 0.0, 0.0, 0.0, 1.7976931348623157e+308, 0.0, 0.0, 0.0, 0.05)",0.0,0.0,0.0,"(0.0, 0.0, 0.0, 0.0, 0.0, 0.0, 0.0, 0.0, 0.0)"
2019/10/07/19:23:47.506471,9788,1570443827,505915888,gyro_link,0.0,0.0,0.634055934345,0.773287186058,"(1.7976931348623157e+308, 0.0, 0.0, 0.0, 1.7976931348623157e+308, 0.0, 0.0, 0.0, 0.05)",0.0,0.0,-0.00383972435439,"(1.7976931348623157e+308, 0.0, 0.0, 0.0, 1.7976931348623157e+308, 0.0, 0.0, 0.0, 0.05)",0.0,0.0,0.0,"(0.0, 0.0, 0.0, 0.0, 0.0, 0.0, 0.0, 0.0, 0.0)"
2019/10/07/19:23:47.563898,9789,1570443827,563524025,gyro_link,0.0,0.0,0.633853466507,0.773453155011,"(1.7976931348623157e+308, 0.0, 0.0, 0.0, 1.7976931348623157e+308, 0.0, 0.0, 0.0, 0.05)",0.0,0.0,-0.0108210413624,"(1.7976931348623157e+308, 0.0, 0.0, 0.0, 1.7976931348623157e+308, 0.0, 0.0, 0.0, 0.05)",0.0,0.0,0.0,"(0.0, 0.0, 0.0, 0.0, 0.0, 0.0, 0.0, 0.0, 0.0)"
2019/10/07/19:23:47.586305,9790,1570443827,585678297,gyro_link,0.0,0.0,0.633785967573,0.773508466216,"(1.7976931348623157e+308, 0.0, 0.0, 0.0, 1.7976931348623157e+308, 0.0, 0.0, 0.0, 0.05)",0.0,0.0,-0.00279252680319,"(1.7976931348623157e+308, 0.0, 0.0, 0.0, 1.7976931348623157e+308, 0.0, 0.0, 0.0, 0.05)",0.0,0.0,0.0,"(0.0, 0.0, 0.0, 0.0, 0.0, 0.0, 0.0, 0.0, 0.0)"
2019/10/07/19:23:47.643794,9791,1570443827,643463145,gyro_link,0.0,0.0,0.633583441813,0.773674364485,"(1.7976931348623157e+308, 0.0, 0.0, 0.0, 1.7976931348623157e+308, 0.0, 0.0, 0.0, 0.05)",0.0,0.0,0.0013962634016,"(1.7976931348623157e+308, 0.0, 0.0, 0.0, 1.7976931348623157e+308, 0.0, 0.0, 0.0, 0.05)",0.0,0.0,0.0,"(0.0, 0.0, 0.0, 0.0, 0.0, 0.0, 0.0, 0.0, 0.0)"
2019/10/07/19:23:47.666146,9792,1570443827,665642059,gyro_link,0.0,0.0,0.633650955225,0.773619070953,"(1.7976931348623157e+308, 0.0, 0.0, 0.0, 1.7976931348623157e+308, 0.0, 0.0, 0.0, 0.05)",0.0,0.0,0.00663225115758,"(1.7976931348623157e+308, 0.0, 0.0, 0.0, 1.7976931348623157e+308, 0.0, 0.0, 0.0, 0.05)",0.0,0.0,0.0,"(0.0, 0.0, 0.0, 0.0, 0.0, 0.0, 0.0, 0.0, 0.0)"
2019/10/07/19:23:47.723850,9793,1570443827,723293744,gyro_link,0.0,0.0,0.633650955225,0.773619070953,"(1.7976931348623157e+308, 0.0, 0.0, 0.0, 1.7976931348623157e+308, 0.0, 0.0, 0.0, 0.05)",0.0,0.0,-0.0157079632679,"(1.7976931348623157e+308, 0.0, 0.0, 0.0, 1.7976931348623157e+308, 0.0, 0.0, 0.0, 0.05)",0.0,0.0,0.0,"(0.0, 0.0, 0.0, 0.0, 0.0, 0.0, 0.0, 0.0, 0.0)"
2019/10/07/19:23:47.745841,9794,1570443827,745371406,gyro_link,0.0,0.0,0.633515923575,0.773729652124,"(1.7976931348623157e+308, 0.0, 0.0, 0.0, 1.7976931348623157e+308, 0.0, 0.0, 0.0, 0.05)",0.0,0.0,-0.0111701072128,"(1.7976931348623157e+308, 0.0, 0.0, 0.0, 1.7976931348623157e+308, 0.0, 0.0, 0.0, 0.05)",0.0,0.0,0.0,"(0.0, 0.0, 0.0, 0.0, 0.0, 0.0, 0.0, 0.0, 0.0)"
2019/10/07/19:23:47.806156,9795,1570443827,805392022,gyro_link,0.0,0.0,0.633583441813,0.773674364485,"(1.7976931348623157e+308, 0.0, 0.0, 0.0, 1.7976931348623157e+308, 0.0, 0.0, 0.0, 0.05)",0.0,0.0,0.00209439510239,"(1.7976931348623157e+308, 0.0, 0.0, 0.0, 1.7976931348623157e+308, 0.0, 0.0, 0.0, 0.05)",0.0,0.0,0.0,"(0.0, 0.0, 0.0, 0.0, 0.0, 0.0, 0.0, 0.0, 0.0)"
2019/10/07/19:23:47.863627,9796,1570443827,862931989,gyro_link,0.0,0.0,0.633448400513,0.773784933872,"(1.7976931348623157e+308, 0.0, 0.0, 0.0, 1.7976931348623157e+308, 0.0, 0.0, 0.0, 0.05)",0.0,0.0,0.00296705972839,"(1.7976931348623157e+308, 0.0, 0.0, 0.0, 1.7976931348623157e+308, 0.0, 0.0, 0.0, 0.05)",0.0,0.0,0.0,"(0.0, 0.0, 0.0, 0.0, 0.0, 0.0, 0.0, 0.0, 0.0)"
2019/10/07/19:23:47.885520,9797,1570443827,885193201,gyro_link,0.0,0.0,0.633448400513,0.773784933872,"(1.7976931348623157e+308, 0.0, 0.0, 0.0, 1.7976931348623157e+308, 0.0, 0.0, 0.0, 0.05)",0.0,0.0,-0.00541052068118,"(1.7976931348623157e+308, 0.0, 0.0, 0.0, 1.7976931348623157e+308, 0.0, 0.0, 0.0, 0.05)",0.0,0.0,0.0,"(0.0, 0.0, 0.0, 0.0, 0.0, 0.0, 0.0, 0.0, 0.0)"
2019/10/07/19:23:47.945189,9798,1570443827,944875089,gyro_link,0.0,0.0,0.633380872628,0.773840209727,"(1.7976931348623157e+308, 0.0, 0.0, 0.0, 1.7976931348623157e+308, 0.0, 0.0, 0.0, 0.05)",0.0,0.0,-0.0183259571459,"(1.7976931348623157e+308, 0.0, 0.0, 0.0, 1.7976931348623157e+308, 0.0, 0.0, 0.0, 0.05)",0.0,0.0,0.0,"(0.0, 0.0, 0.0, 0.0, 0.0, 0.0, 0.0, 0.0, 0.0)"
2019/10/07/19:23:48.005170,9799,1570443828,4802718,gyro_link,0.0,0.0,0.633043160856,0.774116500595,"(1.7976931348623157e+308, 0.0, 0.0, 0.0, 1.7976931348623157e+308, 0.0, 0.0, 0.0, 0.05)",0.0,0.0,-0.00279252680319,"(1.7976931348623157e+308, 0.0, 0.0, 0.0, 1.7976931348623157e+308, 0.0, 0.0, 0.0, 0.05)",0.0,0.0,0.0,"(0.0, 0.0, 0.0, 0.0, 0.0, 0.0, 0.0, 0.0, 0.0)"
2019/10/07/19:23:48.065406,9800,1570443828,64958044,gyro_link,0.0,0.0,0.633043160856,0.774116500595,"(1.7976931348623157e+308, 0.0, 0.0, 0.0, 1.7976931348623157e+308, 0.0, 0.0, 0.0, 0.05)",0.0,0.0,-0.00506145483078,"(1.7976931348623157e+308, 0.0, 0.0, 0.0, 1.7976931348623157e+308, 0.0, 0.0, 0.0, 0.05)",0.0,0.0,0.0,"(0.0, 0.0, 0.0, 0.0, 0.0, 0.0, 0.0, 0.0, 0.0)"
2019/10/07/19:23:48.125276,9801,1570443828,124876656,gyro_link,0.0,0.0,0.633110712854,0.77406125421,"(1.7976931348623157e+308, 0.0, 0.0, 0.0, 1.7976931348623157e+308, 0.0, 0.0, 0.0, 0.05)",0.0,0.0,0.00418879020479,"(1.7976931348623157e+308, 0.0, 0.0, 0.0, 1.7976931348623157e+308, 0.0, 0.0, 0.0, 0.05)",0.0,0.0,0.0,"(0.0, 0.0, 0.0, 0.0, 0.0, 0.0, 0.0, 0.0, 0.0)"
2019/10/07/19:23:48.185239,9802,1570443828,184668954,gyro_link,0.0,0.0,0.632840475939,0.774282204376,"(1.7976931348623157e+308, 0.0, 0.0, 0.0, 1.7976931348623157e+308, 0.0, 0.0, 0.0, 0.05)",0.0,0.0,-0.00698131700798,"(1.7976931348623157e+308, 0.0, 0.0, 0.0, 1.7976931348623157e+308, 0.0, 0.0, 0.0, 0.05)",0.0,0.0,0.0,"(0.0, 0.0, 0.0, 0.0, 0.0, 0.0, 0.0, 0.0, 0.0)"
2019/10/07/19:23:48.244919,9803,1570443828,244467156,gyro_link,0.0,0.0,0.632705328563,0.774392644082,"(1.7976931348623157e+308, 0.0, 0.0, 0.0, 1.7976931348623157e+308, 0.0, 0.0, 0.0, 0.05)",0.0,0.0,-0.00244346095279,"(1.7976931348623157e+308, 0.0, 0.0, 0.0, 1.7976931348623157e+308, 0.0, 0.0, 0.0, 0.05)",0.0,0.0,0.0,"(0.0, 0.0, 0.0, 0.0, 0.0, 0.0, 0.0, 0.0, 0.0)"
2019/10/07/19:23:48.302901,9804,1570443828,302358369,gyro_link,0.0,0.0,0.632705328563,0.774392644082,"(1.7976931348623157e+308, 0.0, 0.0, 0.0, 1.7976931348623157e+308, 0.0, 0.0, 0.0, 0.05)",0.0,0.0,-0.0155334303427,"(1.7976931348623157e+308, 0.0, 0.0, 0.0, 1.7976931348623157e+308, 0.0, 0.0, 0.0, 0.05)",0.0,0.0,0.0,"(0.0, 0.0, 0.0, 0.0, 0.0, 0.0, 0.0, 0.0, 0.0)"
2019/10/07/19:23:48.324887,9805,1570443828,324385094,gyro_link,0.0,0.0,0.632637747647,0.774447855089,"(1.7976931348623157e+308, 0.0, 0.0, 0.0, 1.7976931348623157e+308, 0.0, 0.0, 0.0, 0.05)",0.0,0.0,-0.00959931088597,"(1.7976931348623157e+308, 0.0, 0.0, 0.0, 1.7976931348623157e+308, 0.0, 0.0, 0.0, 0.05)",0.0,0.0,0.0,"(0.0, 0.0, 0.0, 0.0, 0.0, 0.0, 0.0, 0.0, 0.0)"
2019/10/07/19:23:48.383923,9806,1570443828,383302584,gyro_link,0.0,0.0,0.632637747647,0.774447855089,"(1.7976931348623157e+308, 0.0, 0.0, 0.0, 1.7976931348623157e+308, 0.0, 0.0, 0.0, 0.05)",0.0,0.0,0.00174532925199,"(1.7976931348623157e+308, 0.0, 0.0, 0.0, 1.7976931348623157e+308, 0.0, 0.0, 0.0, 0.05)",0.0,0.0,0.0,"(0.0, 0.0, 0.0, 0.0, 0.0, 0.0, 0.0, 0.0, 0.0)"
2019/10/07/19:23:48.404811,9807,1570443828,404287754,gyro_link,0.0,0.0,0.632502571362,0.77455825941,"(1.7976931348623157e+308, 0.0, 0.0, 0.0, 1.7976931348623157e+308, 0.0, 0.0, 0.0, 0.05)",0.0,0.0,-0.01308996939,"(1.7976931348623157e+308, 0.0, 0.0, 0.0, 1.7976931348623157e+308, 0.0, 0.0, 0.0, 0.05)",0.0,0.0,0.0,"(0.0, 0.0, 0.0, 0.0, 0.0, 0.0, 0.0, 0.0, 0.0)"
2019/10/07/19:23:48.464523,9808,1570443828,464194092,gyro_link,0.0,0.0,0.632434975995,0.774613452723,"(1.7976931348623157e+308, 0.0, 0.0, 0.0, 1.7976931348623157e+308, 0.0, 0.0, 0.0, 0.05)",0.0,0.0,0.00750491578358,"(1.7976931348623157e+308, 0.0, 0.0, 0.0, 1.7976931348623157e+308, 0.0, 0.0, 0.0, 0.05)",0.0,0.0,0.0,"(0.0, 0.0, 0.0, 0.0, 0.0, 0.0, 0.0, 0.0, 0.0)"
2019/10/07/19:23:48.524583,9809,1570443828,524099543,gyro_link,0.0,0.0,0.632299770811,0.77472382165,"(1.7976931348623157e+308, 0.0, 0.0, 0.0, 1.7976931348623157e+308, 0.0, 0.0, 0.0, 0.05)",0.0,0.0,-0.0277507351067,"(1.7976931348623157e+308, 0.0, 0.0, 0.0, 1.7976931348623157e+308, 0.0, 0.0, 0.0, 0.05)",0.0,0.0,0.0,"(0.0, 0.0, 0.0, 0.0, 0.0, 0.0, 0.0, 0.0, 0.0)"
2019/10/07/19:23:48.583409,9810,1570443828,582969902,gyro_link,0.0,0.0,0.632164546366,0.774834166979,"(1.7976931348623157e+308, 0.0, 0.0, 0.0, 1.7976931348623157e+308, 0.0, 0.0, 0.0, 0.05)",0.0,0.0,0.00820304748437,"(1.7976931348623157e+308, 0.0, 0.0, 0.0, 1.7976931348623157e+308, 0.0, 0.0, 0.0, 0.05)",0.0,0.0,0.0,"(0.0, 0.0, 0.0, 0.0, 0.0, 0.0, 0.0, 0.0, 0.0)"
2019/10/07/19:23:48.641183,9811,1570443828,640579292,gyro_link,0.0,0.0,0.632029302665,0.774944488704,"(1.7976931348623157e+308, 0.0, 0.0, 0.0, 1.7976931348623157e+308, 0.0, 0.0, 0.0, 0.05)",0.0,0.0,-0.0132645023152,"(1.7976931348623157e+308, 0.0, 0.0, 0.0, 1.7976931348623157e+308, 0.0, 0.0, 0.0, 0.05)",0.0,0.0,0.0,"(0.0, 0.0, 0.0, 0.0, 0.0, 0.0, 0.0, 0.0, 0.0)"
2019/10/07/19:23:48.663334,9812,1570443828,663010430,gyro_link,0.0,0.0,0.631961673594,0.774999640715,"(1.7976931348623157e+308, 0.0, 0.0, 0.0, 1.7976931348623157e+308, 0.0, 0.0, 0.0, 0.05)",0.0,0.0,-0.00279252680319,"(1.7976931348623157e+308, 0.0, 0.0, 0.0, 1.7976931348623157e+308, 0.0, 0.0, 0.0, 0.05)",0.0,0.0,0.0,"(0.0, 0.0, 0.0, 0.0, 0.0, 0.0, 0.0, 0.0, 0.0)"
2019/10/07/19:23:48.721027,9813,1570443828,720453371,gyro_link,0.0,0.0,0.632029302665,0.774944488704,"(1.7976931348623157e+308, 0.0, 0.0, 0.0, 1.7976931348623157e+308, 0.0, 0.0, 0.0, 0.05)",0.0,0.0,-0.00418879020479,"(1.7976931348623157e+308, 0.0, 0.0, 0.0, 1.7976931348623157e+308, 0.0, 0.0, 0.0, 0.05)",0.0,0.0,0.0,"(0.0, 0.0, 0.0, 0.0, 0.0, 0.0, 0.0, 0.0, 0.0)"
2019/10/07/19:23:48.742980,9814,1570443828,742533791,gyro_link,0.0,0.0,0.631894039711,0.775054786824,"(1.7976931348623157e+308, 0.0, 0.0, 0.0, 1.7976931348623157e+308, 0.0, 0.0, 0.0, 0.05)",0.0,0.0,-0.0183259571459,"(1.7976931348623157e+308, 0.0, 0.0, 0.0, 1.7976931348623157e+308, 0.0, 0.0, 0.0, 0.05)",0.0,0.0,0.0,"(0.0, 0.0, 0.0, 0.0, 0.0, 0.0, 0.0, 0.0, 0.0)"
2019/10/07/19:23:48.800951,9815,1570443828,800328629,gyro_link,0.0,0.0,0.63169110919,0.775220189734,"(1.7976931348623157e+308, 0.0, 0.0, 0.0, 1.7976931348623157e+308, 0.0, 0.0, 0.0, 0.05)",0.0,0.0,0.0116937059884,"(1.7976931348623157e+308, 0.0, 0.0, 0.0, 1.7976931348623157e+308, 0.0, 0.0, 0.0, 0.05)",0.0,0.0,0.0,"(0.0, 0.0, 0.0, 0.0, 0.0, 0.0, 0.0, 0.0, 0.0)"
2019/10/07/19:23:48.822845,9816,1570443828,822296951,gyro_link,0.0,0.0,0.631758757508,0.775165061333,"(1.7976931348623157e+308, 0.0, 0.0, 0.0, 1.7976931348623157e+308, 0.0, 0.0, 0.0, 0.05)",0.0,0.0,0.00785398163397,"(1.7976931348623157e+308, 0.0, 0.0, 0.0, 1.7976931348623157e+308, 0.0, 0.0, 0.0, 0.05)",0.0,0.0,0.0,"(0.0, 0.0, 0.0, 0.0, 0.0, 0.0, 0.0, 0.0, 0.0)"
2019/10/07/19:23:48.883157,9817,1570443828,882374186,gyro_link,0.0,0.0,0.631420467816,0.775440644294,"(1.7976931348623157e+308, 0.0, 0.0, 0.0, 1.7976931348623157e+308, 0.0, 0.0, 0.0, 0.05)",0.0,0.0,-0.00855211333477,"(1.7976931348623157e+308, 0.0, 0.0, 0.0, 1.7976931348623157e+308, 0.0, 0.0, 0.0, 0.05)",0.0,0.0,0.0,"(0.0, 0.0, 0.0, 0.0, 0.0, 0.0, 0.0, 0.0, 0.0)"
2019/10/07/19:23:48.940472,9818,1570443828,940036930,gyro_link,0.0,0.0,0.631555798122,0.775330428823,"(1.7976931348623157e+308, 0.0, 0.0, 0.0, 1.7976931348623157e+308, 0.0, 0.0, 0.0, 0.05)",0.0,0.0,0.0127409035396,"(1.7976931348623157e+308, 0.0, 0.0, 0.0, 1.7976931348623157e+308, 0.0, 0.0, 0.0, 0.05)",0.0,0.0,0.0,"(0.0, 0.0, 0.0, 0.0, 0.0, 0.0, 0.0, 0.0, 0.0)"
2019/10/07/19:23:48.962847,9819,1570443828,962174302,gyro_link,0.0,0.0,0.631555798122,0.775330428823,"(1.7976931348623157e+308, 0.0, 0.0, 0.0, 1.7976931348623157e+308, 0.0, 0.0, 0.0, 0.05)",0.0,0.0,-0.0118682389136,"(1.7976931348623157e+308, 0.0, 0.0, 0.0, 1.7976931348623157e+308, 0.0, 0.0, 0.0, 0.05)",0.0,0.0,0.0,"(0.0, 0.0, 0.0, 0.0, 0.0, 0.0, 0.0, 0.0, 0.0)"
2019/10/07/19:23:49.020122,9820,1570443829,19759351,gyro_link,0.0,0.0,0.631285118275,0.775550836144,"(1.7976931348623157e+308, 0.0, 0.0, 0.0, 1.7976931348623157e+308, 0.0, 0.0, 0.0, 0.05)",0.0,0.0,0.012217304764,"(1.7976931348623157e+308, 0.0, 0.0, 0.0, 1.7976931348623157e+308, 0.0, 0.0, 0.0, 0.05)",0.0,0.0,0.0,"(0.0, 0.0, 0.0, 0.0, 0.0, 0.0, 0.0, 0.0, 0.0)"
2019/10/07/19:23:49.042150,9821,1570443829,41682916,gyro_link,0.0,0.0,0.631352795449,0.775495743172,"(1.7976931348623157e+308, 0.0, 0.0, 0.0, 1.7976931348623157e+308, 0.0, 0.0, 0.0, 0.05)",0.0,0.0,0.00383972435439,"(1.7976931348623157e+308, 0.0, 0.0, 0.0, 1.7976931348623157e+308, 0.0, 0.0, 0.0, 0.05)",0.0,0.0,0.0,"(0.0, 0.0, 0.0, 0.0, 0.0, 0.0, 0.0, 0.0, 0.0)"
2019/10/07/19:23:49.101942,9822,1570443829,101577939,gyro_link,0.0,0.0,0.631014361508,0.775771148967,"(1.7976931348623157e+308, 0.0, 0.0, 0.0, 1.7976931348623157e+308, 0.0, 0.0, 0.0, 0.05)",0.0,0.0,-0.0195476876223,"(1.7976931348623157e+308, 0.0, 0.0, 0.0, 1.7976931348623157e+308, 0.0, 0.0, 0.0, 0.05)",0.0,0.0,0.0,"(0.0, 0.0, 0.0, 0.0, 0.0, 0.0, 0.0, 0.0, 0.0)"
2019/10/07/19:23:49.162266,9823,1570443829,161704668,gyro_link,0.0,0.0,0.631285118275,0.775550836144,"(1.7976931348623157e+308, 0.0, 0.0, 0.0, 1.7976931348623157e+308, 0.0, 0.0, 0.0, 0.05)",0.0,0.0,0.0270526034059,"(1.7976931348623157e+308, 0.0, 0.0, 0.0, 1.7976931348623157e+308, 0.0, 0.0, 0.0, 0.05)",0.0,0.0,0.0,"(0.0, 0.0, 0.0, 0.0, 0.0, 0.0, 0.0, 0.0, 0.0)"
2019/10/07/19:23:49.222402,9824,1570443829,221718465,gyro_link,0.0,0.0,0.63087895429,0.775881269933,"(1.7976931348623157e+308, 0.0, 0.0, 0.0, 1.7976931348623157e+308, 0.0, 0.0, 0.0, 0.05)",0.0,0.0,-0.0205948851735,"(1.7976931348623157e+308, 0.0, 0.0, 0.0, 1.7976931348623157e+308, 0.0, 0.0, 0.0, 0.05)",0.0,0.0,0.0,"(0.0, 0.0, 0.0, 0.0, 0.0, 0.0, 0.0, 0.0, 0.0)"
2019/10/07/19:23:49.282154,9825,1570443829,281543548,gyro_link,0.0,0.0,0.630946660302,0.775826212405,"(1.7976931348623157e+308, 0.0, 0.0, 0.0, 1.7976931348623157e+308, 0.0, 0.0, 0.0, 0.05)",0.0,0.0,-0.00157079632679,"(1.7976931348623157e+308, 0.0, 0.0, 0.0, 1.7976931348623157e+308, 0.0, 0.0, 0.0, 0.05)",0.0,0.0,0.0,"(0.0, 0.0, 0.0, 0.0, 0.0, 0.0, 0.0, 0.0, 0.0)"
2019/10/07/19:23:49.341724,9826,1570443829,341238863,gyro_link,0.0,0.0,0.630608082205,0.776101440958,"(1.7976931348623157e+308, 0.0, 0.0, 0.0, 1.7976931348623157e+308, 0.0, 0.0, 0.0, 0.05)",0.0,0.0,-0.000174532925199,"(1.7976931348623157e+308, 0.0, 0.0, 0.0, 1.7976931348623157e+308, 0.0, 0.0, 0.0, 0.05)",0.0,0.0,0.0,"(0.0, 0.0, 0.0, 0.0, 0.0, 0.0, 0.0, 0.0, 0.0)"
2019/10/07/19:23:49.402121,9827,1570443829,401605387,gyro_link,0.0,0.0,0.630946660302,0.775826212405,"(1.7976931348623157e+308, 0.0, 0.0, 0.0, 1.7976931348623157e+308, 0.0, 0.0, 0.0, 0.05)",0.0,0.0,-0.0223402144255,"(1.7976931348623157e+308, 0.0, 0.0, 0.0, 1.7976931348623157e+308, 0.0, 0.0, 0.0, 0.05)",0.0,0.0,0.0,"(0.0, 0.0, 0.0, 0.0, 0.0, 0.0, 0.0, 0.0, 0.0)"
2019/10/07/19:23:49.462123,9828,1570443829,461410738,gyro_link,0.0,0.0,0.630472617346,0.77621149101,"(1.7976931348623157e+308, 0.0, 0.0, 0.0, 1.7976931348623157e+308, 0.0, 0.0, 0.0, 0.05)",0.0,0.0,0.013962634016,"(1.7976931348623157e+308, 0.0, 0.0, 0.0, 1.7976931348623157e+308, 0.0, 0.0, 0.0, 0.05)",0.0,0.0,0.0,"(0.0, 0.0, 0.0, 0.0, 0.0, 0.0, 0.0, 0.0, 0.0)"
2019/10/07/19:23:49.521733,9829,1570443829,521076814,gyro_link,0.0,0.0,0.630472617346,0.77621149101,"(1.7976931348623157e+308, 0.0, 0.0, 0.0, 1.7976931348623157e+308, 0.0, 0.0, 0.0, 0.05)",0.0,0.0,-0.0307177948351,"(1.7976931348623157e+308, 0.0, 0.0, 0.0, 1.7976931348623157e+308, 0.0, 0.0, 0.0, 0.05)",0.0,0.0,0.0,"(0.0, 0.0, 0.0, 0.0, 0.0, 0.0, 0.0, 0.0, 0.0)"
2019/10/07/19:23:49.581464,9830,1570443829,580809649,gyro_link,0.0,0.0,0.630337133282,0.776321517417,"(1.7976931348623157e+308, 0.0, 0.0, 0.0, 1.7976931348623157e+308, 0.0, 0.0, 0.0, 0.05)",0.0,0.0,0.0303687289847,"(1.7976931348623157e+308, 0.0, 0.0, 0.0, 1.7976931348623157e+308, 0.0, 0.0, 0.0, 0.05)",0.0,0.0,0.0,"(0.0, 0.0, 0.0, 0.0, 0.0, 0.0, 0.0, 0.0, 0.0)"
2019/10/07/19:23:49.641427,9831,1570443829,640678617,gyro_link,0.0,0.0,0.630337133282,0.776321517417,"(1.7976931348623157e+308, 0.0, 0.0, 0.0, 1.7976931348623157e+308, 0.0, 0.0, 0.0, 0.05)",0.0,0.0,-0.0349065850399,"(1.7976931348623157e+308, 0.0, 0.0, 0.0, 1.7976931348623157e+308, 0.0, 0.0, 0.0, 0.05)",0.0,0.0,0.0,"(0.0, 0.0, 0.0, 0.0, 0.0, 0.0, 0.0, 0.0, 0.0)"
2019/10/07/19:23:49.701314,9832,1570443829,700625566,gyro_link,0.0,0.0,0.630404877715,0.77626650717,"(1.7976931348623157e+308, 0.0, 0.0, 0.0, 1.7976931348623157e+308, 0.0, 0.0, 0.0, 0.05)",0.0,0.0,0.00418879020479,"(1.7976931348623157e+308, 0.0, 0.0, 0.0, 1.7976931348623157e+308, 0.0, 0.0, 0.0, 0.05)",0.0,0.0,0.0,"(0.0, 0.0, 0.0, 0.0, 0.0, 0.0, 0.0, 0.0, 0.0)"
2019/10/07/19:23:49.759888,9833,1570443829,759303896,gyro_link,0.0,0.0,0.629862787876,0.776706423592,"(1.7976931348623157e+308, 0.0, 0.0, 0.0, 1.7976931348623157e+308, 0.0, 0.0, 0.0, 0.05)",0.0,0.0,-0.0155334303427,"(1.7976931348623157e+308, 0.0, 0.0, 0.0, 1.7976931348623157e+308, 0.0, 0.0, 0.0, 0.05)",0.0,0.0,0.0,"(0.0, 0.0, 0.0, 0.0, 0.0, 0.0, 0.0, 0.0, 0.0)"
2019/10/07/19:23:49.817988,9834,1570443829,817333207,gyro_link,0.0,0.0,0.630201630017,0.776431520177,"(1.7976931348623157e+308, 0.0, 0.0, 0.0, 1.7976931348623157e+308, 0.0, 0.0, 0.0, 0.05)",0.0,0.0,0.0111701072128,"(1.7976931348623157e+308, 0.0, 0.0, 0.0, 1.7976931348623157e+308, 0.0, 0.0, 0.0, 0.05)",0.0,0.0,0.0,"(0.0, 0.0, 0.0, 0.0, 0.0, 0.0, 0.0, 0.0, 0.0)"
2019/10/07/19:23:49.841013,9835,1570443829,840405549,gyro_link,0.0,0.0,0.630133871185,0.776486512687,"(1.7976931348623157e+308, 0.0, 0.0, 0.0, 1.7976931348623157e+308, 0.0, 0.0, 0.0, 0.05)",0.0,0.0,-0.0155334303427,"(1.7976931348623157e+308, 0.0, 0.0, 0.0, 1.7976931348623157e+308, 0.0, 0.0, 0.0, 0.05)",0.0,0.0,0.0,"(0.0, 0.0, 0.0, 0.0, 0.0, 0.0, 0.0, 0.0, 0.0)"
2019/10/07/19:23:49.900058,9836,1570443829,899348826,gyro_link,0.0,0.0,0.629998339126,0.776596479968,"(1.7976931348623157e+308, 0.0, 0.0, 0.0, 1.7976931348623157e+308, 0.0, 0.0, 0.0, 0.05)",0.0,0.0,0.0178023583703,"(1.7976931348623157e+308, 0.0, 0.0, 0.0, 1.7976931348623157e+308, 0.0, 0.0, 0.0, 0.05)",0.0,0.0,0.0,"(0.0, 0.0, 0.0, 0.0, 0.0, 0.0, 0.0, 0.0, 0.0)"
2019/10/07/19:23:49.957731,9837,1570443829,957112957,gyro_link,0.0,0.0,0.629659425027,0.776871294665,"(1.7976931348623157e+308, 0.0, 0.0, 0.0, 1.7976931348623157e+308, 0.0, 0.0, 0.0, 0.05)",0.0,0.0,-0.0396189740203,"(1.7976931348623157e+308, 0.0, 0.0, 0.0, 1.7976931348623157e+308, 0.0, 0.0, 0.0, 0.05)",0.0,0.0,0.0,"(0.0, 0.0, 0.0, 0.0, 0.0, 0.0, 0.0, 0.0, 0.0)"
2019/10/07/19:23:49.979860,9838,1570443829,979264917,gyro_link,0.0,0.0,0.629456019022,0.777036112492,"(1.7976931348623157e+308, 0.0, 0.0, 0.0, 1.7976931348623157e+308, 0.0, 0.0, 0.0, 0.05)",0.0,0.0,-0.0155334303427,"(1.7976931348623157e+308, 0.0, 0.0, 0.0, 1.7976931348623157e+308, 0.0, 0.0, 0.0, 0.05)",0.0,0.0,0.0,"(0.0, 0.0, 0.0, 0.0, 0.0, 0.0, 0.0, 0.0, 0.0)"
2019/10/07/19:23:50.039495,9839,1570443830,39070384,gyro_link,0.0,0.0,0.629727217439,0.776816343556,"(1.7976931348623157e+308, 0.0, 0.0, 0.0, 1.7976931348623157e+308, 0.0, 0.0, 0.0, 0.05)",0.0,0.0,0.00715584993318,"(1.7976931348623157e+308, 0.0, 0.0, 0.0, 1.7976931348623157e+308, 0.0, 0.0, 0.0, 0.05)",0.0,0.0,0.0,"(0.0, 0.0, 0.0, 0.0, 0.0, 0.0, 0.0, 0.0, 0.0)"
2019/10/07/19:23:50.097369,9840,1570443830,96772141,gyro_link,0.0,0.0,0.629388207432,0.777091039934,"(1.7976931348623157e+308, 0.0, 0.0, 0.0, 1.7976931348623157e+308, 0.0, 0.0, 0.0, 0.05)",0.0,0.0,-0.00488692190558,"(1.7976931348623157e+308, 0.0, 0.0, 0.0, 1.7976931348623157e+308, 0.0, 0.0, 0.0, 0.05)",0.0,0.0,0.0,"(0.0, 0.0, 0.0, 0.0, 0.0, 0.0, 0.0, 0.0, 0.0)"
2019/10/07/19:23:50.119435,9841,1570443830,118935437,gyro_link,0.0,0.0,0.629456019022,0.777036112492,"(1.7976931348623157e+308, 0.0, 0.0, 0.0, 1.7976931348623157e+308, 0.0, 0.0, 0.0, 0.05)",0.0,0.0,0.0160570291183,"(1.7976931348623157e+308, 0.0, 0.0, 0.0, 1.7976931348623157e+308, 0.0, 0.0, 0.0, 0.05)",0.0,0.0,0.0,"(0.0, 0.0, 0.0, 0.0, 0.0, 0.0, 0.0, 0.0, 0.0)"
2019/10/07/19:23:50.179327,9842,1570443830,178891047,gyro_link,0.0,0.0,0.629252569875,0.777200877062,"(1.7976931348623157e+308, 0.0, 0.0, 0.0, 1.7976931348623157e+308, 0.0, 0.0, 0.0, 0.05)",0.0,0.0,-0.0282743338823,"(1.7976931348623157e+308, 0.0, 0.0, 0.0, 1.7976931348623157e+308, 0.0, 0.0, 0.0, 0.05)",0.0,0.0,0.0,"(0.0, 0.0, 0.0, 0.0, 0.0, 0.0, 0.0, 0.0, 0.0)"
2019/10/07/19:23:50.236881,9843,1570443830,236449515,gyro_link,0.0,0.0,0.629456019022,0.777036112492,"(1.7976931348623157e+308, 0.0, 0.0, 0.0, 1.7976931348623157e+308, 0.0, 0.0, 0.0, 0.05)",0.0,0.0,0.0193731546971,"(1.7976931348623157e+308, 0.0, 0.0, 0.0, 1.7976931348623157e+308, 0.0, 0.0, 0.0, 0.05)",0.0,0.0,0.0,"(0.0, 0.0, 0.0, 0.0, 0.0, 0.0, 0.0, 0.0, 0.0)"
2019/10/07/19:23:50.258939,9844,1570443830,258600125,gyro_link,0.0,0.0,0.629456019022,0.777036112492,"(1.7976931348623157e+308, 0.0, 0.0, 0.0, 1.7976931348623157e+308, 0.0, 0.0, 0.0, 0.05)",0.0,0.0,-0.0146607657168,"(1.7976931348623157e+308, 0.0, 0.0, 0.0, 1.7976931348623157e+308, 0.0, 0.0, 0.0, 0.05)",0.0,0.0,0.0,"(0.0, 0.0, 0.0, 0.0, 0.0, 0.0, 0.0, 0.0, 0.0)"
2019/10/07/19:23:50.316818,9845,1570443830,316282767,gyro_link,0.0,0.0,0.628913392129,0.777475366299,"(1.7976931348623157e+308, 0.0, 0.0, 0.0, 1.7976931348623157e+308, 0.0, 0.0, 0.0, 0.05)",0.0,0.0,0.0178023583703,"(1.7976931348623157e+308, 0.0, 0.0, 0.0, 1.7976931348623157e+308, 0.0, 0.0, 0.0, 0.05)",0.0,0.0,0.0,"(0.0, 0.0, 0.0, 0.0, 0.0, 0.0, 0.0, 0.0, 0.0)"
2019/10/07/19:23:50.339051,9846,1570443830,338387801,gyro_link,0.0,0.0,0.629116913149,0.777310690516,"(1.7976931348623157e+308, 0.0, 0.0, 0.0, 1.7976931348623157e+308, 0.0, 0.0, 0.0, 0.05)",0.0,0.0,0.0354301838155,"(1.7976931348623157e+308, 0.0, 0.0, 0.0, 1.7976931348623157e+308, 0.0, 0.0, 0.0, 0.05)",0.0,0.0,0.0,"(0.0, 0.0, 0.0, 0.0, 0.0, 0.0, 0.0, 0.0, 0.0)"
2019/10/07/19:23:50.398679,9847,1570443830,398215474,gyro_link,0.0,0.0,0.628913392129,0.777475366299,"(1.7976931348623157e+308, 0.0, 0.0, 0.0, 1.7976931348623157e+308, 0.0, 0.0, 0.0, 0.05)",0.0,0.0,-0.0436332312999,"(1.7976931348623157e+308, 0.0, 0.0, 0.0, 1.7976931348623157e+308, 0.0, 0.0, 0.0, 0.05)",0.0,0.0,0.0,"(0.0, 0.0, 0.0, 0.0, 0.0, 0.0, 0.0, 0.0, 0.0)"
2019/10/07/19:23:50.458832,9848,1570443830,458229608,gyro_link,0.0,0.0,0.628777687501,0.77758512055,"(1.7976931348623157e+308, 0.0, 0.0, 0.0, 1.7976931348623157e+308, 0.0, 0.0, 0.0, 0.05)",0.0,0.0,0.00418879020479,"(1.7976931348623157e+308, 0.0, 0.0, 0.0, 1.7976931348623157e+308, 0.0, 0.0, 0.0, 0.05)",0.0,0.0,0.0,"(0.0, 0.0, 0.0, 0.0, 0.0, 0.0, 0.0, 0.0, 0.0)"
2019/10/07/19:23:50.518927,9849,1570443830,518143261,gyro_link,0.0,0.0,0.628370458711,0.777914241173,"(1.7976931348623157e+308, 0.0, 0.0, 0.0, 1.7976931348623157e+308, 0.0, 0.0, 0.0, 0.05)",0.0,0.0,-0.00418879020479,"(1.7976931348623157e+308, 0.0, 0.0, 0.0, 1.7976931348623157e+308, 0.0, 0.0, 0.0, 0.05)",0.0,0.0,0.0,"(0.0, 0.0, 0.0, 0.0, 0.0, 0.0, 0.0, 0.0, 0.0)"
2019/10/07/19:23:50.578586,9850,1570443830,577872957,gyro_link,0.0,0.0,0.628845542209,0.777530246385,"(1.7976931348623157e+308, 0.0, 0.0, 0.0, 1.7976931348623157e+308, 0.0, 0.0, 0.0, 0.05)",0.0,0.0,-0.0127409035396,"(1.7976931348623157e+308, 0.0, 0.0, 0.0, 1.7976931348623157e+308, 0.0, 0.0, 0.0, 0.05)",0.0,0.0,0.0,"(0.0, 0.0, 0.0, 0.0, 0.0, 0.0, 0.0, 0.0, 0.0)"
2019/10/07/19:23:50.638340,9851,1570443830,637911354,gyro_link,0.0,0.0,0.628098877137,0.778133536444,"(1.7976931348623157e+308, 0.0, 0.0, 0.0, 1.7976931348623157e+308, 0.0, 0.0, 0.0, 0.05)",0.0,0.0,0.0141371669412,"(1.7976931348623157e+308, 0.0, 0.0, 0.0, 1.7976931348623157e+308, 0.0, 0.0, 0.0, 0.05)",0.0,0.0,0.0,"(0.0, 0.0, 0.0, 0.0, 0.0, 0.0, 0.0, 0.0, 0.0)"
2019/10/07/19:23:50.698279,9852,1570443830,697803282,gyro_link,0.0,0.0,0.628234677493,0.778023900658,"(1.7976931348623157e+308, 0.0, 0.0, 0.0, 1.7976931348623157e+308, 0.0, 0.0, 0.0, 0.05)",0.0,0.0,-0.0280998009571,"(1.7976931348623157e+308, 0.0, 0.0, 0.0, 1.7976931348623157e+308, 0.0, 0.0, 0.0, 0.05)",0.0,0.0,0.0,"(0.0, 0.0, 0.0, 0.0, 0.0, 0.0, 0.0, 0.0, 0.0)"
2019/10/07/19:23:50.758286,9853,1570443830,757689070,gyro_link,0.0,0.0,0.628302570494,0.777969073878,"(1.7976931348623157e+308, 0.0, 0.0, 0.0, 1.7976931348623157e+308, 0.0, 0.0, 0.0, 0.05)",0.0,0.0,0.0207694180987,"(1.7976931348623157e+308, 0.0, 0.0, 0.0, 1.7976931348623157e+308, 0.0, 0.0, 0.0, 0.05)",0.0,0.0,0.0,"(0.0, 0.0, 0.0, 0.0, 0.0, 0.0, 0.0, 0.0, 0.0)"
2019/10/07/19:23:50.818142,9854,1570443830,817594929,gyro_link,0.0,0.0,0.627759292552,0.778407522198,"(1.7976931348623157e+308, 0.0, 0.0, 0.0, 1.7976931348623157e+308, 0.0, 0.0, 0.0, 0.05)",0.0,0.0,-0.0455530934771,"(1.7976931348623157e+308, 0.0, 0.0, 0.0, 1.7976931348623157e+308, 0.0, 0.0, 0.0, 0.05)",0.0,0.0,0.0,"(0.0, 0.0, 0.0, 0.0, 0.0, 0.0, 0.0, 0.0, 0.0)"
2019/10/07/19:23:50.878261,9855,1570443830,877476099,gyro_link,0.0,0.0,0.628030969785,0.778188345448,"(1.7976931348623157e+308, 0.0, 0.0, 0.0, 1.7976931348623157e+308, 0.0, 0.0, 0.0, 0.05)",0.0,0.0,0.0294960643587,"(1.7976931348623157e+308, 0.0, 0.0, 0.0, 1.7976931348623157e+308, 0.0, 0.0, 0.0, 0.05)",0.0,0.0,0.0,"(0.0, 0.0, 0.0, 0.0, 0.0, 0.0, 0.0, 0.0, 0.0)"
2019/10/07/19:23:50.936956,9856,1570443830,936274078,gyro_link,0.0,0.0,0.627487538828,0.778626604102,"(1.7976931348623157e+308, 0.0, 0.0, 0.0, 1.7976931348623157e+308, 0.0, 0.0, 0.0, 0.05)",0.0,0.0,-0.0233874119767,"(1.7976931348623157e+308, 0.0, 0.0, 0.0, 1.7976931348623157e+308, 0.0, 0.0, 0.0, 0.05)",0.0,0.0,0.0,"(0.0, 0.0, 0.0, 0.0, 0.0, 0.0, 0.0, 0.0, 0.0)"
2019/10/07/19:23:50.994799,9857,1570443830,994282261,gyro_link,0.0,0.0,0.627691361291,0.778462301567,"(1.7976931348623157e+308, 0.0, 0.0, 0.0, 1.7976931348623157e+308, 0.0, 0.0, 0.0, 0.05)",0.0,0.0,-0.0207694180987,"(1.7976931348623157e+308, 0.0, 0.0, 0.0, 1.7976931348623157e+308, 0.0, 0.0, 0.0, 0.05)",0.0,0.0,0.0,"(0.0, 0.0, 0.0, 0.0, 0.0, 0.0, 0.0, 0.0, 0.0)"
2019/10/07/19:23:51.016368,9858,1570443831,16015813,gyro_link,0.0,0.0,0.62741958845,0.778681359755,"(1.7976931348623157e+308, 0.0, 0.0, 0.0, 1.7976931348623157e+308, 0.0, 0.0, 0.0, 0.05)",0.0,0.0,-0.0363028484415,"(1.7976931348623157e+308, 0.0, 0.0, 0.0, 1.7976931348623157e+308, 0.0, 0.0, 0.0, 0.05)",0.0,0.0,0.0,"(0.0, 0.0, 0.0, 0.0, 0.0, 0.0, 0.0, 0.0, 0.0)"
2019/10/07/19:23:51.075018,9859,1570443831,74247377,gyro_link,0.0,0.0,0.627555484428,0.778571842519,"(1.7976931348623157e+308, 0.0, 0.0, 0.0, 1.7976931348623157e+308, 0.0, 0.0, 0.0, 0.05)",0.0,0.0,0.0431096325243,"(1.7976931348623157e+308, 0.0, 0.0, 0.0, 1.7976931348623157e+308, 0.0, 0.0, 0.0, 0.05)",0.0,0.0,0.0,"(0.0, 0.0, 0.0, 0.0, 0.0, 0.0, 0.0, 0.0, 0.0)"
2019/10/07/19:23:51.096604,9860,1570443831,96174549,gyro_link,0.0,0.0,0.627827219032,0.778352736902,"(1.7976931348623157e+308, 0.0, 0.0, 0.0, 1.7976931348623157e+308, 0.0, 0.0, 0.0, 0.05)",0.0,0.0,0.0275762021815,"(1.7976931348623157e+308, 0.0, 0.0, 0.0, 1.7976931348623157e+308, 0.0, 0.0, 0.0, 0.05)",0.0,0.0,0.0,"(0.0, 0.0, 0.0, 0.0, 0.0, 0.0, 0.0, 0.0, 0.0)"
2019/10/07/19:23:51.153984,9861,1570443831,153759138,gyro_link,0.0,0.0,0.62714773916,0.778900323063,"(1.7976931348623157e+308, 0.0, 0.0, 0.0, 1.7976931348623157e+308, 0.0, 0.0, 0.0, 0.05)",0.0,0.0,-0.00226892802759,"(1.7976931348623157e+308, 0.0, 0.0, 0.0, 1.7976931348623157e+308, 0.0, 0.0, 0.0, 0.05)",0.0,0.0,0.0,"(0.0, 0.0, 0.0, 0.0, 0.0, 0.0, 0.0, 0.0, 0.0)"
2019/10/07/19:23:51.176272,9862,1570443831,175794490,gyro_link,0.0,0.0,0.627351633293,0.778736109478,"(1.7976931348623157e+308, 0.0, 0.0, 0.0, 1.7976931348623157e+308, 0.0, 0.0, 0.0, 0.05)",0.0,0.0,0.0289724655831,"(1.7976931348623157e+308, 0.0, 0.0, 0.0, 1.7976931348623157e+308, 0.0, 0.0, 0.0, 0.05)",0.0,0.0,0.0,"(0.0, 0.0, 0.0, 0.0, 0.0, 0.0, 0.0, 0.0, 0.0)"
2019/10/07/19:23:51.236238,9863,1570443831,235711877,gyro_link,0.0,0.0,0.626739821955,0.779228590066,"(1.7976931348623157e+308, 0.0, 0.0, 0.0, 1.7976931348623157e+308, 0.0, 0.0, 0.0, 0.05)",0.0,0.0,-0.0450294947015,"(1.7976931348623157e+308, 0.0, 0.0, 0.0, 1.7976931348623157e+308, 0.0, 0.0, 0.0, 0.05)",0.0,0.0,0.0,"(0.0, 0.0, 0.0, 0.0, 0.0, 0.0, 0.0, 0.0, 0.0)"
2019/10/07/19:23:51.294152,9864,1570443831,293631428,gyro_link,0.0,0.0,0.626943802042,0.779064483262,"(1.7976931348623157e+308, 0.0, 0.0, 0.0, 1.7976931348623157e+308, 0.0, 0.0, 0.0, 0.05)",0.0,0.0,0.0265290046303,"(1.7976931348623157e+308, 0.0, 0.0, 0.0, 1.7976931348623157e+308, 0.0, 0.0, 0.0, 0.05)",0.0,0.0,0.0,"(0.0, 0.0, 0.0, 0.0, 0.0, 0.0, 0.0, 0.0, 0.0)"
2019/10/07/19:23:51.316019,9865,1570443831,315628494,gyro_link,0.0,0.0,0.626943802042,0.779064483262,"(1.7976931348623157e+308, 0.0, 0.0, 0.0, 1.7976931348623157e+308, 0.0, 0.0, 0.0, 0.05)",0.0,0.0,-0.0141371669412,"(1.7976931348623157e+308, 0.0, 0.0, 0.0, 1.7976931348623157e+308, 0.0, 0.0, 0.0, 0.05)",0.0,0.0,0.0,"(0.0, 0.0, 0.0, 0.0, 0.0, 0.0, 0.0, 0.0, 0.0)"
2019/10/07/19:23:51.374115,9866,1570443831,373393229,gyro_link,0.0,0.0,0.626535798911,0.779392643462,"(1.7976931348623157e+308, 0.0, 0.0, 0.0, 1.7976931348623157e+308, 0.0, 0.0, 0.0, 0.05)",0.0,0.0,0.0401425727959,"(1.7976931348623157e+308, 0.0, 0.0, 0.0, 1.7976931348623157e+308, 0.0, 0.0, 0.0, 0.05)",0.0,0.0,0.0,"(0.0, 0.0, 0.0, 0.0, 0.0, 0.0, 0.0, 0.0, 0.0)"
2019/10/07/19:23:51.395709,9867,1570443831,395286408,gyro_link,0.0,0.0,0.626807820091,0.779173893732,"(1.7976931348623157e+308, 0.0, 0.0, 0.0, 1.7976931348623157e+308, 0.0, 0.0, 0.0, 0.05)",0.0,0.0,0.0310668606855,"(1.7976931348623157e+308, 0.0, 0.0, 0.0, 1.7976931348623157e+308, 0.0, 0.0, 0.0, 0.05)",0.0,0.0,0.0,"(0.0, 0.0, 0.0, 0.0, 0.0, 0.0, 0.0, 0.0, 0.0)"
2019/10/07/19:23:51.456187,9868,1570443831,455648106,gyro_link,0.0,0.0,0.626195665085,0.779665947075,"(1.7976931348623157e+308, 0.0, 0.0, 0.0, 1.7976931348623157e+308, 0.0, 0.0, 0.0, 0.05)",0.0,0.0,-0.0387463093943,"(1.7976931348623157e+308, 0.0, 0.0, 0.0, 1.7976931348623157e+308, 0.0, 0.0, 0.0, 0.05)",0.0,0.0,0.0,"(0.0, 0.0, 0.0, 0.0, 0.0, 0.0, 0.0, 0.0, 0.0)"
2019/10/07/19:23:51.516068,9869,1570443831,515452597,gyro_link,0.0,0.0,0.626535798911,0.779392643462,"(1.7976931348623157e+308, 0.0, 0.0, 0.0, 1.7976931348623157e+308, 0.0, 0.0, 0.0, 0.05)",0.0,0.0,0.000523598775598,"(1.7976931348623157e+308, 0.0, 0.0, 0.0, 1.7976931348623157e+308, 0.0, 0.0, 0.0, 0.05)",0.0,0.0,0.0,"(0.0, 0.0, 0.0, 0.0, 0.0, 0.0, 0.0, 0.0, 0.0)"
2019/10/07/19:23:51.575962,9870,1570443831,575317080,gyro_link,0.0,0.0,0.626127624012,0.779720589987,"(1.7976931348623157e+308, 0.0, 0.0, 0.0, 1.7976931348623157e+308, 0.0, 0.0, 0.0, 0.05)",0.0,0.0,0.00453785605519,"(1.7976931348623157e+308, 0.0, 0.0, 0.0, 1.7976931348623157e+308, 0.0, 0.0, 0.0, 0.05)",0.0,0.0,0.0,"(0.0, 0.0, 0.0, 0.0, 0.0, 0.0, 0.0, 0.0, 0.0)"
2019/10/07/19:23:51.635665,9871,1570443831,635153259,gyro_link,0.0,0.0,0.626127624012,0.779720589987,"(1.7976931348623157e+308, 0.0, 0.0, 0.0, 1.7976931348623157e+308, 0.0, 0.0, 0.0, 0.05)",0.0,0.0,-0.0506145483078,"(1.7976931348623157e+308, 0.0, 0.0, 0.0, 1.7976931348623157e+308, 0.0, 0.0, 0.0, 0.05)",0.0,0.0,0.0,"(0.0, 0.0, 0.0, 0.0, 0.0, 0.0, 0.0, 0.0, 0.0)"
2019/10/07/19:23:51.695596,9872,1570443831,695153202,gyro_link,0.0,0.0,0.625923472184,0.779884483093,"(1.7976931348623157e+308, 0.0, 0.0, 0.0, 1.7976931348623157e+308, 0.0, 0.0, 0.0, 0.05)",0.0,0.0,0.0485201532054,"(1.7976931348623157e+308, 0.0, 0.0, 0.0, 1.7976931348623157e+308, 0.0, 0.0, 0.0, 0.05)",0.0,0.0,0.0,"(0.0, 0.0, 0.0, 0.0, 0.0, 0.0, 0.0, 0.0, 0.0)"
2019/10/07/19:23:51.755780,9873,1570443831,755050299,gyro_link,0.0,0.0,0.625855412041,0.779939102251,"(1.7976931348623157e+308, 0.0, 0.0, 0.0, 1.7976931348623157e+308, 0.0, 0.0, 0.0, 0.05)",0.0,0.0,-0.0326376570123,"(1.7976931348623157e+308, 0.0, 0.0, 0.0, 1.7976931348623157e+308, 0.0, 0.0, 0.0, 0.05)",0.0,0.0,0.0,"(0.0, 0.0, 0.0, 0.0, 0.0, 0.0, 0.0, 0.0, 0.0)"
2019/10/07/19:23:51.815611,9874,1570443831,814935936,gyro_link,0.0,0.0,0.626127624012,0.779720589987,"(1.7976931348623157e+308, 0.0, 0.0, 0.0, 1.7976931348623157e+308, 0.0, 0.0, 0.0, 0.05)",0.0,0.0,0.00959931088597,"(1.7976931348623157e+308, 0.0, 0.0, 0.0, 1.7976931348623157e+308, 0.0, 0.0, 0.0, 0.05)",0.0,0.0,0.0,"(0.0, 0.0, 0.0, 0.0, 0.0, 0.0, 0.0, 0.0, 0.0)"
2019/10/07/19:23:51.875251,9875,1570443831,874810812,gyro_link,0.0,0.0,0.625651203016,0.780102924084,"(1.7976931348623157e+308, 0.0, 0.0, 0.0, 1.7976931348623157e+308, 0.0, 0.0, 0.0, 0.05)",0.0,0.0,0.00802851455917,"(1.7976931348623157e+308, 0.0, 0.0, 0.0, 1.7976931348623157e+308, 0.0, 0.0, 0.0, 0.05)",0.0,0.0,0.0,"(0.0, 0.0, 0.0, 0.0, 0.0, 0.0, 0.0, 0.0, 0.0)"
2019/10/07/19:23:51.935246,9876,1570443831,934647522,gyro_link,0.0,0.0,0.626195665085,0.779665947075,"(1.7976931348623157e+308, 0.0, 0.0, 0.0, 1.7976931348623157e+308, 0.0, 0.0, 0.0, 0.05)",0.0,0.0,-0.0287979326579,"(1.7976931348623157e+308, 0.0, 0.0, 0.0, 1.7976931348623157e+308, 0.0, 0.0, 0.0, 0.05)",0.0,0.0,0.0,"(0.0, 0.0, 0.0, 0.0, 0.0, 0.0, 0.0, 0.0, 0.0)"
2019/10/07/19:23:51.995017,9877,1570443831,994539169,gyro_link,0.0,0.0,0.62605957817,0.779775226961,"(1.7976931348623157e+308, 0.0, 0.0, 0.0, 1.7976931348623157e+308, 0.0, 0.0, 0.0, 0.05)",0.0,0.0,0.0385717764691,"(1.7976931348623157e+308, 0.0, 0.0, 0.0, 1.7976931348623157e+308, 0.0, 0.0, 0.0, 0.05)",0.0,0.0,0.0,"(0.0, 0.0, 0.0, 0.0, 0.0, 0.0, 0.0, 0.0, 0.0)"
2019/10/07/19:23:52.054896,9878,1570443832,54274080,gyro_link,0.0,0.0,0.625719277456,0.780048322747,"(1.7976931348623157e+308, 0.0, 0.0, 0.0, 1.7976931348623157e+308, 0.0, 0.0, 0.0, 0.05)",0.0,0.0,-0.0439822971503,"(1.7976931348623157e+308, 0.0, 0.0, 0.0, 1.7976931348623157e+308, 0.0, 0.0, 0.0, 0.05)",0.0,0.0,0.0,"(0.0, 0.0, 0.0, 0.0, 0.0, 0.0, 0.0, 0.0, 0.0)"
2019/10/07/19:23:52.114730,9879,1570443832,114014327,gyro_link,0.0,0.0,0.625923472184,0.779884483093,"(1.7976931348623157e+308, 0.0, 0.0, 0.0, 1.7976931348623157e+308, 0.0, 0.0, 0.0, 0.05)",0.0,0.0,0.0336848545635,"(1.7976931348623157e+308, 0.0, 0.0, 0.0, 1.7976931348623157e+308, 0.0, 0.0, 0.0, 0.05)",0.0,0.0,0.0,"(0.0, 0.0, 0.0, 0.0, 0.0, 0.0, 0.0, 0.0, 0.0)"
2019/10/07/19:23:52.173443,9880,1570443832,172923834,gyro_link,0.0,0.0,0.625719277456,0.780048322747,"(1.7976931348623157e+308, 0.0, 0.0, 0.0, 1.7976931348623157e+308, 0.0, 0.0, 0.0, 0.05)",0.0,0.0,0.00837758040957,"(1.7976931348623157e+308, 0.0, 0.0, 0.0, 1.7976931348623157e+308, 0.0, 0.0, 0.0, 0.05)",0.0,0.0,0.0,"(0.0, 0.0, 0.0, 0.0, 0.0, 0.0, 0.0, 0.0, 0.0)"
2019/10/07/19:23:52.231556,9881,1570443832,231169189,gyro_link,0.0,0.0,0.625991527561,0.779829857996,"(1.7976931348623157e+308, 0.0, 0.0, 0.0, 1.7976931348623157e+308, 0.0, 0.0, 0.0, 0.05)",0.0,0.0,-0.0321140582367,"(1.7976931348623157e+308, 0.0, 0.0, 0.0, 1.7976931348623157e+308, 0.0, 0.0, 0.0, 0.05)",0.0,0.0,0.0,"(0.0, 0.0, 0.0, 0.0, 0.0, 0.0, 0.0, 0.0, 0.0)"
2019/10/07/19:23:52.253623,9882,1570443832,252860999,gyro_link,0.0,0.0,0.625651203016,0.780102924084,"(1.7976931348623157e+308, 0.0, 0.0, 0.0, 1.7976931348623157e+308, 0.0, 0.0, 0.0, 0.05)",0.0,0.0,-0.0476474885794,"(1.7976931348623157e+308, 0.0, 0.0, 0.0, 1.7976931348623157e+308, 0.0, 0.0, 0.0, 0.05)",0.0,0.0,0.0,"(0.0, 0.0, 0.0, 0.0, 0.0, 0.0, 0.0, 0.0, 0.0)"
2019/10/07/19:23:52.311250,9883,1570443832,310691408,gyro_link,0.0,0.0,0.625719277456,0.780048322747,"(1.7976931348623157e+308, 0.0, 0.0, 0.0, 1.7976931348623157e+308, 0.0, 0.0, 0.0, 0.05)",0.0,0.0,0.0403171057211,"(1.7976931348623157e+308, 0.0, 0.0, 0.0, 1.7976931348623157e+308, 0.0, 0.0, 0.0, 0.05)",0.0,0.0,0.0,"(0.0, 0.0, 0.0, 0.0, 0.0, 0.0, 0.0, 0.0, 0.0)"
2019/10/07/19:23:52.333175,9884,1570443832,332568716,gyro_link,0.0,0.0,0.625923472184,0.779884483093,"(1.7976931348623157e+308, 0.0, 0.0, 0.0, 1.7976931348623157e+308, 0.0, 0.0, 0.0, 0.05)",0.0,0.0,0.0191986217719,"(1.7976931348623157e+308, 0.0, 0.0, 0.0, 1.7976931348623157e+308, 0.0, 0.0, 0.0, 0.05)",0.0,0.0,0.0,"(0.0, 0.0, 0.0, 0.0, 0.0, 0.0, 0.0, 0.0, 0.0)"
2019/10/07/19:23:52.391124,9885,1570443832,390744730,gyro_link,0.0,0.0,0.625787347131,0.779993715469,"(1.7976931348623157e+308, 0.0, 0.0, 0.0, 1.7976931348623157e+308, 0.0, 0.0, 0.0, 0.05)",0.0,0.0,0.0197222205475,"(1.7976931348623157e+308, 0.0, 0.0, 0.0, 1.7976931348623157e+308, 0.0, 0.0, 0.0, 0.05)",0.0,0.0,0.0,"(0.0, 0.0, 0.0, 0.0, 0.0, 0.0, 0.0, 0.0, 0.0)"
2019/10/07/19:23:52.413077,9886,1570443832,412658411,gyro_link,0.0,0.0,0.626127624012,0.779720589987,"(1.7976931348623157e+308, 0.0, 0.0, 0.0, 1.7976931348623157e+308, 0.0, 0.0, 0.0, 0.05)",0.0,0.0,0.0200712863979,"(1.7976931348623157e+308, 0.0, 0.0, 0.0, 1.7976931348623157e+308, 0.0, 0.0, 0.0, 0.05)",0.0,0.0,0.0,"(0.0, 0.0, 0.0, 0.0, 0.0, 0.0, 0.0, 0.0, 0.0)"
2019/10/07/19:23:52.471168,9887,1570443832,470383627,gyro_link,0.0,0.0,0.625378857614,0.780321270022,"(1.7976931348623157e+308, 0.0, 0.0, 0.0, 1.7976931348623157e+308, 0.0, 0.0, 0.0, 0.05)",0.0,0.0,-0.0364773813667,"(1.7976931348623157e+308, 0.0, 0.0, 0.0, 1.7976931348623157e+308, 0.0, 0.0, 0.0, 0.05)",0.0,0.0,0.0,"(0.0, 0.0, 0.0, 0.0, 0.0, 0.0, 0.0, 0.0, 0.0)"
2019/10/07/19:23:52.492825,9888,1570443832,492410065,gyro_link,0.0,0.0,0.625378857614,0.780321270022,"(1.7976931348623157e+308, 0.0, 0.0, 0.0, 1.7976931348623157e+308, 0.0, 0.0, 0.0, 0.05)",0.0,0.0,0.0101229096616,"(1.7976931348623157e+308, 0.0, 0.0, 0.0, 1.7976931348623157e+308, 0.0, 0.0, 0.0, 0.05)",0.0,0.0,0.0,"(0.0, 0.0, 0.0, 0.0, 0.0, 0.0, 0.0, 0.0, 0.0)"
2019/10/07/19:23:52.550770,9889,1570443832,550246152,gyro_link,0.0,0.0,0.625719277456,0.780048322747,"(1.7976931348623157e+308, 0.0, 0.0, 0.0, 1.7976931348623157e+308, 0.0, 0.0, 0.0, 0.05)",0.0,0.0,-0.0188495559215,"(1.7976931348623157e+308, 0.0, 0.0, 0.0, 1.7976931348623157e+308, 0.0, 0.0, 0.0, 0.05)",0.0,0.0,0.0,"(0.0, 0.0, 0.0, 0.0, 0.0, 0.0, 0.0, 0.0, 0.0)"
2019/10/07/19:23:52.572757,9890,1570443832,572306996,gyro_link,0.0,0.0,0.625583123811,0.780157519481,"(1.7976931348623157e+308, 0.0, 0.0, 0.0, 1.7976931348623157e+308, 0.0, 0.0, 0.0, 0.05)",0.0,0.0,-0.0200712863979,"(1.7976931348623157e+308, 0.0, 0.0, 0.0, 1.7976931348623157e+308, 0.0, 0.0, 0.0, 0.05)",0.0,0.0,0.0,"(0.0, 0.0, 0.0, 0.0, 0.0, 0.0, 0.0, 0.0, 0.0)"
2019/10/07/19:23:52.632737,9891,1570443832,632158047,gyro_link,0.0,0.0,0.625719277456,0.780048322747,"(1.7976931348623157e+308, 0.0, 0.0, 0.0, 1.7976931348623157e+308, 0.0, 0.0, 0.0, 0.05)",0.0,0.0,0.00226892802759,"(1.7976931348623157e+308, 0.0, 0.0, 0.0, 1.7976931348623157e+308, 0.0, 0.0, 0.0, 0.05)",0.0,0.0,0.0,"(0.0, 0.0, 0.0, 0.0, 0.0, 0.0, 0.0, 0.0, 0.0)"
2019/10/07/19:23:52.692730,9892,1570443832,692109170,gyro_link,0.0,0.0,0.62544695111,0.780266692451,"(1.7976931348623157e+308, 0.0, 0.0, 0.0, 1.7976931348623157e+308, 0.0, 0.0, 0.0, 0.05)",0.0,0.0,0.0331612557879,"(1.7976931348623157e+308, 0.0, 0.0, 0.0, 1.7976931348623157e+308, 0.0, 0.0, 0.0, 0.05)",0.0,0.0,0.0,"(0.0, 0.0, 0.0, 0.0, 0.0, 0.0, 0.0, 0.0, 0.0)"
2019/10/07/19:23:52.752370,9893,1570443832,751993571,gyro_link,0.0,0.0,0.625651203016,0.780102924084,"(1.7976931348623157e+308, 0.0, 0.0, 0.0, 1.7976931348623157e+308, 0.0, 0.0, 0.0, 0.05)",0.0,0.0,-0.0294960643587,"(1.7976931348623157e+308, 0.0, 0.0, 0.0, 1.7976931348623157e+308, 0.0, 0.0, 0.0, 0.05)",0.0,0.0,0.0,"(0.0, 0.0, 0.0, 0.0, 0.0, 0.0, 0.0, 0.0, 0.0)"
2019/10/07/19:23:52.812207,9894,1570443832,811792793,gyro_link,0.0,0.0,0.625515039842,0.780212108937,"(1.7976931348623157e+308, 0.0, 0.0, 0.0, 1.7976931348623157e+308, 0.0, 0.0, 0.0, 0.05)",0.0,0.0,0.0172787595947,"(1.7976931348623157e+308, 0.0, 0.0, 0.0, 1.7976931348623157e+308, 0.0, 0.0, 0.0, 0.05)",0.0,0.0,0.0,"(0.0, 0.0, 0.0, 0.0, 0.0, 0.0, 0.0, 0.0, 0.0)"
2019/10/07/19:23:52.872419,9895,1570443832,871995542,gyro_link,0.0,0.0,0.625310759356,0.780375841652,"(1.7976931348623157e+308, 0.0, 0.0, 0.0, 1.7976931348623157e+308, 0.0, 0.0, 0.0, 0.05)",0.0,0.0,-0.0237364778271,"(1.7976931348623157e+308, 0.0, 0.0, 0.0, 1.7976931348623157e+308, 0.0, 0.0, 0.0, 0.05)",0.0,0.0,0.0,"(0.0, 0.0, 0.0, 0.0, 0.0, 0.0, 0.0, 0.0, 0.0)"
2019/10/07/19:23:52.931877,9896,1570443832,931462507,gyro_link,0.0,0.0,0.625515039842,0.780212108937,"(1.7976931348623157e+308, 0.0, 0.0, 0.0, 1.7976931348623157e+308, 0.0, 0.0, 0.0, 0.05)",0.0,0.0,-0.00767944870878,"(1.7976931348623157e+308, 0.0, 0.0, 0.0, 1.7976931348623157e+308, 0.0, 0.0, 0.0, 0.05)",0.0,0.0,0.0,"(0.0, 0.0, 0.0, 0.0, 0.0, 0.0, 0.0, 0.0, 0.0)"
2019/10/07/19:23:52.991925,9897,1570443832,991506360,gyro_link,0.0,0.0,0.625038318708,0.780594068736,"(1.7976931348623157e+308, 0.0, 0.0, 0.0, 1.7976931348623157e+308, 0.0, 0.0, 0.0, 0.05)",0.0,0.0,0.0116937059884,"(1.7976931348623157e+308, 0.0, 0.0, 0.0, 1.7976931348623157e+308, 0.0, 0.0, 0.0, 0.05)",0.0,0.0,0.0,"(0.0, 0.0, 0.0, 0.0, 0.0, 0.0, 0.0, 0.0, 0.0)"
2019/10/07/19:23:53.051843,9898,1570443833,51447565,gyro_link,0.0,0.0,0.625242656336,0.780430407338,"(1.7976931348623157e+308, 0.0, 0.0, 0.0, 1.7976931348623157e+308, 0.0, 0.0, 0.0, 0.05)",0.0,0.0,-0.0408407044967,"(1.7976931348623157e+308, 0.0, 0.0, 0.0, 1.7976931348623157e+308, 0.0, 0.0, 0.0, 0.05)",0.0,0.0,0.0,"(0.0, 0.0, 0.0, 0.0, 0.0, 0.0, 0.0, 0.0, 0.0)"
2019/10/07/19:23:53.111857,9899,1570443833,111313349,gyro_link,0.0,0.0,0.625106436011,0.780539520881,"(1.7976931348623157e+308, 0.0, 0.0, 0.0, 1.7976931348623157e+308, 0.0, 0.0, 0.0, 0.05)",0.0,0.0,0.0214675497995,"(1.7976931348623157e+308, 0.0, 0.0, 0.0, 1.7976931348623157e+308, 0.0, 0.0, 0.0, 0.05)",0.0,0.0,0.0,"(0.0, 0.0, 0.0, 0.0, 0.0, 0.0, 0.0, 0.0, 0.0)"
2019/10/07/19:23:53.171751,9900,1570443833,171299014,gyro_link,0.0,0.0,0.624765801902,0.780812200707,"(1.7976931348623157e+308, 0.0, 0.0, 0.0, 1.7976931348623157e+308, 0.0, 0.0, 0.0, 0.05)",0.0,0.0,-0.0157079632679,"(1.7976931348623157e+308, 0.0, 0.0, 0.0, 1.7976931348623157e+308, 0.0, 0.0, 0.0, 0.05)",0.0,0.0,0.0,"(0.0, 0.0, 0.0, 0.0, 0.0, 0.0, 0.0, 0.0, 0.0)"
2019/10/07/19:23:53.231874,9901,1570443833,231328473,gyro_link,0.0,0.0,0.625174548554,0.780484967081,"(1.7976931348623157e+308, 0.0, 0.0, 0.0, 1.7976931348623157e+308, 0.0, 0.0, 0.0, 0.05)",0.0,0.0,-0.0212930168743,"(1.7976931348623157e+308, 0.0, 0.0, 0.0, 1.7976931348623157e+308, 0.0, 0.0, 0.0, 0.05)",0.0,0.0,0.0,"(0.0, 0.0, 0.0, 0.0, 0.0, 0.0, 0.0, 0.0, 0.0)"
2019/10/07/19:23:53.291323,9902,1570443833,290966211,gyro_link,0.0,0.0,0.624561364338,0.780975737252,"(1.7976931348623157e+308, 0.0, 0.0, 0.0, 1.7976931348623157e+308, 0.0, 0.0, 0.0, 0.05)",0.0,0.0,0.00558505360638,"(1.7976931348623157e+308, 0.0, 0.0, 0.0, 1.7976931348623157e+308, 0.0, 0.0, 0.0, 0.05)",0.0,0.0,0.0,"(0.0, 0.0, 0.0, 0.0, 0.0, 0.0, 0.0, 0.0, 0.0)"
2019/10/07/19:23:53.351326,9903,1570443833,350902157,gyro_link,0.0,0.0,0.624697660804,0.780866718836,"(1.7976931348623157e+308, 0.0, 0.0, 0.0, 1.7976931348623157e+308, 0.0, 0.0, 0.0, 0.05)",0.0,0.0,-0.0293215314335,"(1.7976931348623157e+308, 0.0, 0.0, 0.0, 1.7976931348623157e+308, 0.0, 0.0, 0.0, 0.05)",0.0,0.0,0.0,"(0.0, 0.0, 0.0, 0.0, 0.0, 0.0, 0.0, 0.0, 0.0)"
2019/10/07/19:23:53.410151,9904,1570443833,409655683,gyro_link,0.0,0.0,0.624902069823,0.780703146613,"(1.7976931348623157e+308, 0.0, 0.0, 0.0, 1.7976931348623157e+308, 0.0, 0.0, 0.0, 0.05)",0.0,0.0,0.0361283155163,"(1.7976931348623157e+308, 0.0, 0.0, 0.0, 1.7976931348623157e+308, 0.0, 0.0, 0.0, 0.05)",0.0,0.0,0.0,"(0.0, 0.0, 0.0, 0.0, 0.0, 0.0, 0.0, 0.0, 0.0)"
2019/10/07/19:23:53.468031,9905,1570443833,467511397,gyro_link,0.0,0.0,0.624425048846,0.781084731878,"(1.7976931348623157e+308, 0.0, 0.0, 0.0, 1.7976931348623157e+308, 0.0, 0.0, 0.0, 0.05)",0.0,0.0,-0.0258308729295,"(1.7976931348623157e+308, 0.0, 0.0, 0.0, 1.7976931348623157e+308, 0.0, 0.0, 0.0, 0.05)",0.0,0.0,0.0,"(0.0, 0.0, 0.0, 0.0, 0.0, 0.0, 0.0, 0.0, 0.0)"
2019/10/07/19:23:53.490071,9906,1570443833,489755402,gyro_link,0.0,0.0,0.62449320897,0.781030237539,"(1.7976931348623157e+308, 0.0, 0.0, 0.0, 1.7976931348623157e+308, 0.0, 0.0, 0.0, 0.05)",0.0,0.0,0.0261799387799,"(1.7976931348623157e+308, 0.0, 0.0, 0.0, 1.7976931348623157e+308, 0.0, 0.0, 0.0, 0.05)",0.0,0.0,0.0,"(0.0, 0.0, 0.0, 0.0, 0.0, 0.0, 0.0, 0.0, 0.0)"
2019/10/07/19:23:53.547799,9907,1570443833,547439859,gyro_link,0.0,0.0,0.624765801902,0.780812200707,"(1.7976931348623157e+308, 0.0, 0.0, 0.0, 1.7976931348623157e+308, 0.0, 0.0, 0.0, 0.05)",0.0,0.0,-0.0370009801423,"(1.7976931348623157e+308, 0.0, 0.0, 0.0, 1.7976931348623157e+308, 0.0, 0.0, 0.0, 0.05)",0.0,0.0,0.0,"(0.0, 0.0, 0.0, 0.0, 0.0, 0.0, 0.0, 0.0, 0.0)"
2019/10/07/19:23:53.569829,9908,1570443833,569522480,gyro_link,0.0,0.0,0.62449320897,0.781030237539,"(1.7976931348623157e+308, 0.0, 0.0, 0.0, 1.7976931348623157e+308, 0.0, 0.0, 0.0, 0.05)",0.0,0.0,-0.0363028484415,"(1.7976931348623157e+308, 0.0, 0.0, 0.0, 1.7976931348623157e+308, 0.0, 0.0, 0.0, 0.05)",0.0,0.0,0.0,"(0.0, 0.0, 0.0, 0.0, 0.0, 0.0, 0.0, 0.0, 0.0)"
2019/10/07/19:23:53.627897,9909,1570443833,627430082,gyro_link,0.0,0.0,0.624561364338,0.780975737252,"(1.7976931348623157e+308, 0.0, 0.0, 0.0, 1.7976931348623157e+308, 0.0, 0.0, 0.0, 0.05)",0.0,0.0,-0.0185004900711,"(1.7976931348623157e+308, 0.0, 0.0, 0.0, 1.7976931348623157e+308, 0.0, 0.0, 0.0, 0.05)",0.0,0.0,0.0,"(0.0, 0.0, 0.0, 0.0, 0.0, 0.0, 0.0, 0.0, 0.0)"
2019/10/07/19:23:53.649804,9910,1570443833,649415127,gyro_link,0.0,0.0,0.624288714333,0.781193702712,"(1.7976931348623157e+308, 0.0, 0.0, 0.0, 1.7976931348623157e+308, 0.0, 0.0, 0.0, 0.05)",0.0,0.0,-0.0410152374219,"(1.7976931348623157e+308, 0.0, 0.0, 0.0, 1.7976931348623157e+308, 0.0, 0.0, 0.0, 0.05)",0.0,0.0,0.0,"(0.0, 0.0, 0.0, 0.0, 0.0, 0.0, 0.0, 0.0, 0.0)"
2019/10/07/19:23:53.709702,9911,1570443833,709229439,gyro_link,0.0,0.0,0.624356883967,0.781139220269,"(1.7976931348623157e+308, 0.0, 0.0, 0.0, 1.7976931348623157e+308, 0.0, 0.0, 0.0, 0.05)",0.0,0.0,0.0345575191895,"(1.7976931348623157e+308, 0.0, 0.0, 0.0, 1.7976931348623157e+308, 0.0, 0.0, 0.0, 0.05)",0.0,0.0,0.0,"(0.0, 0.0, 0.0, 0.0, 0.0, 0.0, 0.0, 0.0, 0.0)"
2019/10/07/19:23:53.767482,9912,1570443833,767025184,gyro_link,0.0,0.0,0.623947794861,0.781466025678,"(1.7976931348623157e+308, 0.0, 0.0, 0.0, 1.7976931348623157e+308, 0.0, 0.0, 0.0, 0.05)",0.0,0.0,-0.0253072741539,"(1.7976931348623157e+308, 0.0, 0.0, 0.0, 1.7976931348623157e+308, 0.0, 0.0, 0.0, 0.05)",0.0,0.0,0.0,"(0.0, 0.0, 0.0, 0.0, 0.0, 0.0, 0.0, 0.0, 0.0)"
2019/10/07/19:23:53.789338,9913,1570443833,789052740,gyro_link,0.0,0.0,0.623947794861,0.781466025678,"(1.7976931348623157e+308, 0.0, 0.0, 0.0, 1.7976931348623157e+308, 0.0, 0.0, 0.0, 0.05)",0.0,0.0,0.0155334303427,"(1.7976931348623157e+308, 0.0, 0.0, 0.0, 1.7976931348623157e+308, 0.0, 0.0, 0.0, 0.05)",0.0,0.0,0.0,"(0.0, 0.0, 0.0, 0.0, 0.0, 0.0, 0.0, 0.0, 0.0)"
2019/10/07/19:23:53.847326,9914,1570443833,846893575,gyro_link,0.0,0.0,0.623879596709,0.781520472419,"(1.7976931348623157e+308, 0.0, 0.0, 0.0, 1.7976931348623157e+308, 0.0, 0.0, 0.0, 0.05)",0.0,0.0,-0.0445058959259,"(1.7976931348623157e+308, 0.0, 0.0, 0.0, 1.7976931348623157e+308, 0.0, 0.0, 0.0, 0.05)",0.0,0.0,0.0,"(0.0, 0.0, 0.0, 0.0, 0.0, 0.0, 0.0, 0.0, 0.0)"
2019/10/07/19:23:53.869326,9915,1570443833,868836062,gyro_link,0.0,0.0,0.623743186154,0.781629348046,"(1.7976931348623157e+308, 0.0, 0.0, 0.0, 1.7976931348623157e+308, 0.0, 0.0, 0.0, 0.05)",0.0,0.0,-0.0172787595947,"(1.7976931348623157e+308, 0.0, 0.0, 0.0, 1.7976931348623157e+308, 0.0, 0.0, 0.0, 0.05)",0.0,0.0,0.0,"(0.0, 0.0, 0.0, 0.0, 0.0, 0.0, 0.0, 0.0, 0.0)"
2019/10/07/19:23:53.929105,9916,1570443833,928575183,gyro_link,0.0,0.0,0.623947794861,0.781466025678,"(1.7976931348623157e+308, 0.0, 0.0, 0.0, 1.7976931348623157e+308, 0.0, 0.0, 0.0, 0.05)",0.0,0.0,-0.00261799387799,"(1.7976931348623157e+308, 0.0, 0.0, 0.0, 1.7976931348623157e+308, 0.0, 0.0, 0.0, 0.05)",0.0,0.0,0.0,"(0.0, 0.0, 0.0, 0.0, 0.0, 0.0, 0.0, 0.0, 0.0)"
2019/10/07/19:23:53.989208,9917,1570443833,988648084,gyro_link,0.0,0.0,0.623947794861,0.781466025678,"(1.7976931348623157e+308, 0.0, 0.0, 0.0, 1.7976931348623157e+308, 0.0, 0.0, 0.0, 0.05)",0.0,0.0,0.0308923277603,"(1.7976931348623157e+308, 0.0, 0.0, 0.0, 1.7976931348623157e+308, 0.0, 0.0, 0.0, 0.05)",0.0,0.0,0.0,"(0.0, 0.0, 0.0, 0.0, 0.0, 0.0, 0.0, 0.0, 0.0)"
2019/10/07/19:23:54.048860,9918,1570443834,48443274,gyro_link,0.0,0.0,0.623743186154,0.781629348046,"(1.7976931348623157e+308, 0.0, 0.0, 0.0, 1.7976931348623157e+308, 0.0, 0.0, 0.0, 0.05)",0.0,0.0,-0.0457276264023,"(1.7976931348623157e+308, 0.0, 0.0, 0.0, 1.7976931348623157e+308, 0.0, 0.0, 0.0, 0.05)",0.0,0.0,0.0,"(0.0, 0.0, 0.0, 0.0, 0.0, 0.0, 0.0, 0.0, 0.0)"
2019/10/07/19:23:54.109034,9919,1570443834,108495657,gyro_link,0.0,0.0,0.623743186154,0.781629348046,"(1.7976931348623157e+308, 0.0, 0.0, 0.0, 1.7976931348623157e+308, 0.0, 0.0, 0.0, 0.05)",0.0,0.0,0.0329867228627,"(1.7976931348623157e+308, 0.0, 0.0, 0.0, 1.7976931348623157e+308, 0.0, 0.0, 0.0, 0.05)",0.0,0.0,0.0,"(0.0, 0.0, 0.0, 0.0, 0.0, 0.0, 0.0, 0.0, 0.0)"
2019/10/07/19:23:54.168711,9920,1570443834,168235228,gyro_link,0.0,0.0,0.623265599609,0.782010225217,"(1.7976931348623157e+308, 0.0, 0.0, 0.0, 1.7976931348623157e+308, 0.0, 0.0, 0.0, 0.05)",0.0,0.0,-0.0371755130675,"(1.7976931348623157e+308, 0.0, 0.0, 0.0, 1.7976931348623157e+308, 0.0, 0.0, 0.0, 0.05)",0.0,0.0,0.0,"(0.0, 0.0, 0.0, 0.0, 0.0, 0.0, 0.0, 0.0, 0.0)"
2019/10/07/19:23:54.228590,9921,1570443834,228070831,gyro_link,0.0,0.0,0.623197353969,0.782064612424,"(1.7976931348623157e+308, 0.0, 0.0, 0.0, 1.7976931348623157e+308, 0.0, 0.0, 0.0, 0.05)",0.0,0.0,-0.0244346095279,"(1.7976931348623157e+308, 0.0, 0.0, 0.0, 1.7976931348623157e+308, 0.0, 0.0, 0.0, 0.05)",0.0,0.0,0.0,"(0.0, 0.0, 0.0, 0.0, 0.0, 0.0, 0.0, 0.0, 0.0)"
2019/10/07/19:23:54.288577,9922,1570443834,288127189,gyro_link,0.0,0.0,0.622924323959,0.782282101688,"(1.7976931348623157e+308, 0.0, 0.0, 0.0, 1.7976931348623157e+308, 0.0, 0.0, 0.0, 0.05)",0.0,0.0,0.0329867228627,"(1.7976931348623157e+308, 0.0, 0.0, 0.0, 1.7976931348623157e+308, 0.0, 0.0, 0.0, 0.05)",0.0,0.0,0.0,"(0.0, 0.0, 0.0, 0.0, 0.0, 0.0, 0.0, 0.0, 0.0)"
2019/10/07/19:23:54.348519,9923,1570443834,348102883,gyro_link,0.0,0.0,0.622856054595,0.782336459111,"(1.7976931348623157e+308, 0.0, 0.0, 0.0, 1.7976931348623157e+308, 0.0, 0.0, 0.0, 0.05)",0.0,0.0,-0.0164060949687,"(1.7976931348623157e+308, 0.0, 0.0, 0.0, 1.7976931348623157e+308, 0.0, 0.0, 0.0, 0.05)",0.0,0.0,0.0,"(0.0, 0.0, 0.0, 0.0, 0.0, 0.0, 0.0, 0.0, 0.0)"
2019/10/07/19:23:54.408415,9924,1570443834,408008163,gyro_link,0.0,0.0,0.623060848454,0.782173368969,"(1.7976931348623157e+308, 0.0, 0.0, 0.0, 1.7976931348623157e+308, 0.0, 0.0, 0.0, 0.05)",0.0,0.0,-0.00733038285838,"(1.7976931348623157e+308, 0.0, 0.0, 0.0, 1.7976931348623157e+308, 0.0, 0.0, 0.0, 0.05)",0.0,0.0,0.0,"(0.0, 0.0, 0.0, 0.0, 0.0, 0.0, 0.0, 0.0, 0.0)"
2019/10/07/19:23:54.468327,9925,1570443834,467714924,gyro_link,0.0,0.0,0.622378036266,0.782716794233,"(1.7976931348623157e+308, 0.0, 0.0, 0.0, 1.7976931348623157e+308, 0.0, 0.0, 0.0, 0.05)",0.0,0.0,-0.0162315620435,"(1.7976931348623157e+308, 0.0, 0.0, 0.0, 1.7976931348623157e+308, 0.0, 0.0, 0.0, 0.05)",0.0,0.0,0.0,"(0.0, 0.0, 0.0, 0.0, 0.0, 0.0, 0.0, 0.0, 0.0)"
2019/10/07/19:23:54.527936,9926,1570443834,527547189,gyro_link,0.0,0.0,0.622719501638,0.782445156084,"(1.7976931348623157e+308, 0.0, 0.0, 0.0, 1.7976931348623157e+308, 0.0, 0.0, 0.0, 0.05)",0.0,0.0,0.00174532925199,"(1.7976931348623157e+308, 0.0, 0.0, 0.0, 1.7976931348623157e+308, 0.0, 0.0, 0.0, 0.05)",0.0,0.0,0.0,"(0.0, 0.0, 0.0, 0.0, 0.0, 0.0, 0.0, 0.0, 0.0)"
2019/10/07/19:23:54.587162,9927,1570443834,586681880,gyro_link,0.0,0.0,0.622856054595,0.782336459111,"(1.7976931348623157e+308, 0.0, 0.0, 0.0, 1.7976931348623157e+308, 0.0, 0.0, 0.0, 0.05)",0.0,0.0,0.0258308729295,"(1.7976931348623157e+308, 0.0, 0.0, 0.0, 1.7976931348623157e+308, 0.0, 0.0, 0.0, 0.05)",0.0,0.0,0.0,"(0.0, 0.0, 0.0, 0.0, 0.0, 0.0, 0.0, 0.0, 0.0)"
2019/10/07/19:23:54.644932,9928,1570443834,644541054,gyro_link,0.0,0.0,0.622241416936,0.78282540777,"(1.7976931348623157e+308, 0.0, 0.0, 0.0, 1.7976931348623157e+308, 0.0, 0.0, 0.0, 0.05)",0.0,0.0,-0.0364773813667,"(1.7976931348623157e+308, 0.0, 0.0, 0.0, 1.7976931348623157e+308, 0.0, 0.0, 0.0, 0.05)",0.0,0.0,0.0,"(0.0, 0.0, 0.0, 0.0, 0.0, 0.0, 0.0, 0.0, 0.0)"
2019/10/07/19:23:54.667100,9929,1570443834,666388954,gyro_link,0.0,0.0,0.622173100162,0.782879705596,"(1.7976931348623157e+308, 0.0, 0.0, 0.0, 1.7976931348623157e+308, 0.0, 0.0, 0.0, 0.05)",0.0,0.0,0.0013962634016,"(1.7976931348623157e+308, 0.0, 0.0, 0.0, 1.7976931348623157e+308, 0.0, 0.0, 0.0, 0.05)",0.0,0.0,0.0,"(0.0, 0.0, 0.0, 0.0, 0.0, 0.0, 0.0, 0.0, 0.0)"
2019/10/07/19:23:54.726948,9930,1570443834,726349024,gyro_link,0.0,0.0,0.622582929713,0.782553829222,"(1.7976931348623157e+308, 0.0, 0.0, 0.0, 1.7976931348623157e+308, 0.0, 0.0, 0.0, 0.05)",0.0,0.0,0.00191986217719,"(1.7976931348623157e+308, 0.0, 0.0, 0.0, 1.7976931348623157e+308, 0.0, 0.0, 0.0, 0.05)",0.0,0.0,0.0,"(0.0, 0.0, 0.0, 0.0, 0.0, 0.0, 0.0, 0.0, 0.0)"
2019/10/07/19:23:54.784683,9931,1570443834,784249156,gyro_link,0.0,0.0,0.622719501638,0.782445156084,"(1.7976931348623157e+308, 0.0, 0.0, 0.0, 1.7976931348623157e+308, 0.0, 0.0, 0.0, 0.05)",0.0,0.0,0.0270526034059,"(1.7976931348623157e+308, 0.0, 0.0, 0.0, 1.7976931348623157e+308, 0.0, 0.0, 0.0, 0.05)",0.0,0.0,0.0,"(0.0, 0.0, 0.0, 0.0, 0.0, 0.0, 0.0, 0.0, 0.0)"
2019/10/07/19:23:54.806690,9932,1570443834,806163904,gyro_link,0.0,0.0,0.622719501638,0.782445156084,"(1.7976931348623157e+308, 0.0, 0.0, 0.0, 1.7976931348623157e+308, 0.0, 0.0, 0.0, 0.05)",0.0,0.0,-0.00663225115758,"(1.7976931348623157e+308, 0.0, 0.0, 0.0, 1.7976931348623157e+308, 0.0, 0.0, 0.0, 0.05)",0.0,0.0,0.0,"(0.0, 0.0, 0.0, 0.0, 0.0, 0.0, 0.0, 0.0, 0.0)"
2019/10/07/19:23:54.866220,9933,1570443834,865834347,gyro_link,0.0,0.0,0.622104778651,0.782933997461,"(1.7976931348623157e+308, 0.0, 0.0, 0.0, 1.7976931348623157e+308, 0.0, 0.0, 0.0, 0.05)",0.0,0.0,0.00471238898038,"(1.7976931348623157e+308, 0.0, 0.0, 0.0, 1.7976931348623157e+308, 0.0, 0.0, 0.0, 0.05)",0.0,0.0,0.0,"(0.0, 0.0, 0.0, 0.0, 0.0, 0.0, 0.0, 0.0, 0.0)"
2019/10/07/19:23:54.924437,9934,1570443834,924010104,gyro_link,0.0,0.0,0.622514636638,0.782608156852,"(1.7976931348623157e+308, 0.0, 0.0, 0.0, 1.7976931348623157e+308, 0.0, 0.0, 0.0, 0.05)",0.0,0.0,0.00191986217719,"(1.7976931348623157e+308, 0.0, 0.0, 0.0, 1.7976931348623157e+308, 0.0, 0.0, 0.0, 0.05)",0.0,0.0,0.0,"(0.0, 0.0, 0.0, 0.0, 0.0, 0.0, 0.0, 0.0, 0.0)"
2019/10/07/19:23:54.946567,9935,1570443834,946040509,gyro_link,0.0,0.0,0.622446338822,0.782662478523,"(1.7976931348623157e+308, 0.0, 0.0, 0.0, 1.7976931348623157e+308, 0.0, 0.0, 0.0, 0.05)",0.0,0.0,-0.0134390352404,"(1.7976931348623157e+308, 0.0, 0.0, 0.0, 1.7976931348623157e+308, 0.0, 0.0, 0.0, 0.05)",0.0,0.0,0.0,"(0.0, 0.0, 0.0, 0.0, 0.0, 0.0, 0.0, 0.0, 0.0)"
2019/10/07/19:23:55.006280,9936,1570443835,5942000,gyro_link,0.0,0.0,0.622651218046,0.782499495633,"(1.7976931348623157e+308, 0.0, 0.0, 0.0, 1.7976931348623157e+308, 0.0, 0.0, 0.0, 0.05)",0.0,0.0,0.0137881010908,"(1.7976931348623157e+308, 0.0, 0.0, 0.0, 1.7976931348623157e+308, 0.0, 0.0, 0.0, 0.05)",0.0,0.0,0.0,"(0.0, 0.0, 0.0, 0.0, 0.0, 0.0, 0.0, 0.0, 0.0)"
2019/10/07/19:23:55.066005,9937,1570443835,65624496,gyro_link,0.0,0.0,0.622241416936,0.78282540777,"(1.7976931348623157e+308, 0.0, 0.0, 0.0, 1.7976931348623157e+308, 0.0, 0.0, 0.0, 0.05)",0.0,0.0,0.010471975512,"(1.7976931348623157e+308, 0.0, 0.0, 0.0, 1.7976931348623157e+308, 0.0, 0.0, 0.0, 0.05)",0.0,0.0,0.0,"(0.0, 0.0, 0.0, 0.0, 0.0, 0.0, 0.0, 0.0, 0.0)"
2019/10/07/19:23:55.126043,9938,1570443835,125510273,gyro_link,0.0,0.0,0.622378036266,0.782716794233,"(1.7976931348623157e+308, 0.0, 0.0, 0.0, 1.7976931348623157e+308, 0.0, 0.0, 0.0, 0.05)",0.0,0.0,-0.0185004900711,"(1.7976931348623157e+308, 0.0, 0.0, 0.0, 1.7976931348623157e+308, 0.0, 0.0, 0.0, 0.05)",0.0,0.0,0.0,"(0.0, 0.0, 0.0, 0.0, 0.0, 0.0, 0.0, 0.0, 0.0)"
2019/10/07/19:23:55.185766,9939,1570443835,185414956,gyro_link,0.0,0.0,0.622582929713,0.782553829222,"(1.7976931348623157e+308, 0.0, 0.0, 0.0, 1.7976931348623157e+308, 0.0, 0.0, 0.0, 0.05)",0.0,0.0,0.0101229096616,"(1.7976931348623157e+308, 0.0, 0.0, 0.0, 1.7976931348623157e+308, 0.0, 0.0, 0.0, 0.05)",0.0,0.0,0.0,"(0.0, 0.0, 0.0, 0.0, 0.0, 0.0, 0.0, 0.0, 0.0)"
2019/10/07/19:23:55.245935,9940,1570443835,245377406,gyro_link,0.0,0.0,0.622036452402,0.782988283363,"(1.7976931348623157e+308, 0.0, 0.0, 0.0, 1.7976931348623157e+308, 0.0, 0.0, 0.0, 0.05)",0.0,0.0,0.000174532925199,"(1.7976931348623157e+308, 0.0, 0.0, 0.0, 1.7976931348623157e+308, 0.0, 0.0, 0.0, 0.05)",0.0,0.0,0.0,"(0.0, 0.0, 0.0, 0.0, 0.0, 0.0, 0.0, 0.0, 0.0)"
2019/10/07/19:23:55.305794,9941,1570443835,305126093,gyro_link,0.0,0.0,0.62230972897,0.782771103982,"(1.7976931348623157e+308, 0.0, 0.0, 0.0, 1.7976931348623157e+308, 0.0, 0.0, 0.0, 0.05)",0.0,0.0,0.0013962634016,"(1.7976931348623157e+308, 0.0, 0.0, 0.0, 1.7976931348623157e+308, 0.0, 0.0, 0.0, 0.05)",0.0,0.0,0.0,"(0.0, 0.0, 0.0, 0.0, 0.0, 0.0, 0.0, 0.0, 0.0)"
2019/10/07/19:23:55.365777,9942,1570443835,365118478,gyro_link,0.0,0.0,0.622378036266,0.782716794233,"(1.7976931348623157e+308, 0.0, 0.0, 0.0, 1.7976931348623157e+308, 0.0, 0.0, 0.0, 0.05)",0.0,0.0,0.0375245789179,"(1.7976931348623157e+308, 0.0, 0.0, 0.0, 1.7976931348623157e+308, 0.0, 0.0, 0.0, 0.05)",0.0,0.0,0.0,"(0.0, 0.0, 0.0, 0.0, 0.0, 0.0, 0.0, 0.0, 0.0)"
2019/10/07/19:23:55.425722,9943,1570443835,425387536,gyro_link,0.0,0.0,0.622036452402,0.782988283363,"(1.7976931348623157e+308, 0.0, 0.0, 0.0, 1.7976931348623157e+308, 0.0, 0.0, 0.0, 0.05)",0.0,0.0,-0.0541052068118,"(1.7976931348623157e+308, 0.0, 0.0, 0.0, 1.7976931348623157e+308, 0.0, 0.0, 0.0, 0.05)",0.0,0.0,0.0,"(0.0, 0.0, 0.0, 0.0, 0.0, 0.0, 0.0, 0.0, 0.0)"
2019/10/07/19:23:55.483536,9944,1570443835,482936330,gyro_link,0.0,0.0,0.622104778651,0.782933997461,"(1.7976931348623157e+308, 0.0, 0.0, 0.0, 1.7976931348623157e+308, 0.0, 0.0, 0.0, 0.05)",0.0,0.0,0.00872664625997,"(1.7976931348623157e+308, 0.0, 0.0, 0.0, 1.7976931348623157e+308, 0.0, 0.0, 0.0, 0.05)",0.0,0.0,0.0,"(0.0, 0.0, 0.0, 0.0, 0.0, 0.0, 0.0, 0.0, 0.0)"
2019/10/07/19:23:55.505335,9945,1570443835,504846610,gyro_link,0.0,0.0,0.621968121415,0.783042563302,"(1.7976931348623157e+308, 0.0, 0.0, 0.0, 1.7976931348623157e+308, 0.0, 0.0, 0.0, 0.05)",0.0,0.0,-0.0169296937443,"(1.7976931348623157e+308, 0.0, 0.0, 0.0, 1.7976931348623157e+308, 0.0, 0.0, 0.0, 0.05)",0.0,0.0,0.0,"(0.0, 0.0, 0.0, 0.0, 0.0, 0.0, 0.0, 0.0, 0.0)"
2019/10/07/19:23:55.564209,9946,1570443835,563558466,gyro_link,0.0,0.0,0.621968121415,0.783042563302,"(1.7976931348623157e+308, 0.0, 0.0, 0.0, 1.7976931348623157e+308, 0.0, 0.0, 0.0, 0.05)",0.0,0.0,0.0253072741539,"(1.7976931348623157e+308, 0.0, 0.0, 0.0, 1.7976931348623157e+308, 0.0, 0.0, 0.0, 0.05)",0.0,0.0,0.0,"(0.0, 0.0, 0.0, 0.0, 0.0, 0.0, 0.0, 0.0, 0.0)"
2019/10/07/19:23:55.585049,9947,1570443835,584590362,gyro_link,0.0,0.0,0.622036452402,0.782988283363,"(1.7976931348623157e+308, 0.0, 0.0, 0.0, 1.7976931348623157e+308, 0.0, 0.0, 0.0, 0.05)",0.0,0.0,-0.00802851455917,"(1.7976931348623157e+308, 0.0, 0.0, 0.0, 1.7976931348623157e+308, 0.0, 0.0, 0.0, 0.05)",0.0,0.0,0.0,"(0.0, 0.0, 0.0, 0.0, 0.0, 0.0, 0.0, 0.0, 0.0)"
2019/10/07/19:23:55.645110,9948,1570443835,644618001,gyro_link,0.0,0.0,0.621489671917,0.783422355885,"(1.7976931348623157e+308, 0.0, 0.0, 0.0, 1.7976931348623157e+308, 0.0, 0.0, 0.0, 0.05)",0.0,0.0,0.000698131700798,"(1.7976931348623157e+308, 0.0, 0.0, 0.0, 1.7976931348623157e+308, 0.0, 0.0, 0.0, 0.05)",0.0,0.0,0.0,"(0.0, 0.0, 0.0, 0.0, 0.0, 0.0, 0.0, 0.0, 0.0)"
2019/10/07/19:23:55.704926,9949,1570443835,704386211,gyro_link,0.0,0.0,0.62176310004,0.783205367339,"(1.7976931348623157e+308, 0.0, 0.0, 0.0, 1.7976931348623157e+308, 0.0, 0.0, 0.0, 0.05)",0.0,0.0,-0.00802851455917,"(1.7976931348623157e+308, 0.0, 0.0, 0.0, 1.7976931348623157e+308, 0.0, 0.0, 0.0, 0.05)",0.0,0.0,0.0,"(0.0, 0.0, 0.0, 0.0, 0.0, 0.0, 0.0, 0.0, 0.0)"
2019/10/07/19:23:55.763797,9950,1570443835,763187230,gyro_link,0.0,0.0,0.622036452402,0.782988283363,"(1.7976931348623157e+308, 0.0, 0.0, 0.0, 1.7976931348623157e+308, 0.0, 0.0, 0.0, 0.05)",0.0,0.0,0.0270526034059,"(1.7976931348623157e+308, 0.0, 0.0, 0.0, 1.7976931348623157e+308, 0.0, 0.0, 0.0, 0.05)",0.0,0.0,0.0,"(0.0, 0.0, 0.0, 0.0, 0.0, 0.0, 0.0, 0.0, 0.0)"
2019/10/07/19:23:55.821660,9951,1570443835,821141140,gyro_link,0.0,0.0,0.621421303053,0.783476588107,"(1.7976931348623157e+308, 0.0, 0.0, 0.0, 1.7976931348623157e+308, 0.0, 0.0, 0.0, 0.05)",0.0,0.0,-0.0223402144255,"(1.7976931348623157e+308, 0.0, 0.0, 0.0, 1.7976931348623157e+308, 0.0, 0.0, 0.0, 0.05)",0.0,0.0,0.0,"(0.0, 0.0, 0.0, 0.0, 0.0, 0.0, 0.0, 0.0, 0.0)"
2019/10/07/19:23:55.843480,9952,1570443835,843183253,gyro_link,0.0,0.0,0.621489671917,0.783422355885,"(1.7976931348623157e+308, 0.0, 0.0, 0.0, 1.7976931348623157e+308, 0.0, 0.0, 0.0, 0.05)",0.0,0.0,0.0164060949687,"(1.7976931348623157e+308, 0.0, 0.0, 0.0, 1.7976931348623157e+308, 0.0, 0.0, 0.0, 0.05)",0.0,0.0,0.0,"(0.0, 0.0, 0.0, 0.0, 0.0, 0.0, 0.0, 0.0, 0.0)"
2019/10/07/19:23:55.901377,9953,1570443835,900945523,gyro_link,0.0,0.0,0.621558036049,0.783368117696,"(1.7976931348623157e+308, 0.0, 0.0, 0.0, 1.7976931348623157e+308, 0.0, 0.0, 0.0, 0.05)",0.0,0.0,-0.0216420827247,"(1.7976931348623157e+308, 0.0, 0.0, 0.0, 1.7976931348623157e+308, 0.0, 0.0, 0.0, 0.05)",0.0,0.0,0.0,"(0.0, 0.0, 0.0, 0.0, 0.0, 0.0, 0.0, 0.0, 0.0)"
2019/10/07/19:23:55.923522,9954,1570443835,923073559,gyro_link,0.0,0.0,0.621421303053,0.783476588107,"(1.7976931348623157e+308, 0.0, 0.0, 0.0, 1.7976931348623157e+308, 0.0, 0.0, 0.0, 0.05)",0.0,0.0,-0.00925024503557,"(1.7976931348623157e+308, 0.0, 0.0, 0.0, 1.7976931348623157e+308, 0.0, 0.0, 0.0, 0.05)",0.0,0.0,0.0,"(0.0, 0.0, 0.0, 0.0, 0.0, 0.0, 0.0, 0.0, 0.0)"
2019/10/07/19:23:55.981400,9955,1570443835,980925921,gyro_link,0.0,0.0,0.621899785693,0.783096837278,"(1.7976931348623157e+308, 0.0, 0.0, 0.0, 1.7976931348623157e+308, 0.0, 0.0, 0.0, 0.05)",0.0,0.0,0.0226892802759,"(1.7976931348623157e+308, 0.0, 0.0, 0.0, 1.7976931348623157e+308, 0.0, 0.0, 0.0, 0.05)",0.0,0.0,0.0,"(0.0, 0.0, 0.0, 0.0, 0.0, 0.0, 0.0, 0.0, 0.0)"
2019/10/07/19:23:56.003184,9956,1570443836,2893540,gyro_link,0.0,0.0,0.621831445234,0.783151105291,"(1.7976931348623157e+308, 0.0, 0.0, 0.0, 1.7976931348623157e+308, 0.0, 0.0, 0.0, 0.05)",0.0,0.0,-0.0244346095279,"(1.7976931348623157e+308, 0.0, 0.0, 0.0, 1.7976931348623157e+308, 0.0, 0.0, 0.0, 0.05)",0.0,0.0,0.0,"(0.0, 0.0, 0.0, 0.0, 0.0, 0.0, 0.0, 0.0, 0.0)"
2019/10/07/19:23:56.063484,9957,1570443836,62944143,gyro_link,0.0,0.0,0.621352929457,0.783530814362,"(1.7976931348623157e+308, 0.0, 0.0, 0.0, 1.7976931348623157e+308, 0.0, 0.0, 0.0, 0.05)",0.0,0.0,0.0160570291183,"(1.7976931348623157e+308, 0.0, 0.0, 0.0, 1.7976931348623157e+308, 0.0, 0.0, 0.0, 0.05)",0.0,0.0,0.0,"(0.0, 0.0, 0.0, 0.0, 0.0, 0.0, 0.0, 0.0, 0.0)"
2019/10/07/19:23:56.121093,9958,1570443836,120699840,gyro_link,0.0,0.0,0.621284551129,0.783585034651,"(1.7976931348623157e+308, 0.0, 0.0, 0.0, 1.7976931348623157e+308, 0.0, 0.0, 0.0, 0.05)",0.0,0.0,0.000698131700798,"(1.7976931348623157e+308, 0.0, 0.0, 0.0, 1.7976931348623157e+308, 0.0, 0.0, 0.0, 0.05)",0.0,0.0,0.0,"(0.0, 0.0, 0.0, 0.0, 0.0, 0.0, 0.0, 0.0, 0.0)"
2019/10/07/19:23:56.143742,9959,1570443836,143020266,gyro_link,0.0,0.0,0.621352929457,0.783530814362,"(1.7976931348623157e+308, 0.0, 0.0, 0.0, 1.7976931348623157e+308, 0.0, 0.0, 0.0, 0.05)",0.0,0.0,0.0134390352404,"(1.7976931348623157e+308, 0.0, 0.0, 0.0, 1.7976931348623157e+308, 0.0, 0.0, 0.0, 0.05)",0.0,0.0,0.0,"(0.0, 0.0, 0.0, 0.0, 0.0, 0.0, 0.0, 0.0, 0.0)"
2019/10/07/19:23:56.200542,9960,1570443836,200246118,gyro_link,0.0,0.0,0.620805770381,0.783964409563,"(1.7976931348623157e+308, 0.0, 0.0, 0.0, 1.7976931348623157e+308, 0.0, 0.0, 0.0, 0.05)",0.0,0.0,-0.0237364778271,"(1.7976931348623157e+308, 0.0, 0.0, 0.0, 1.7976931348623157e+308, 0.0, 0.0, 0.0, 0.05)",0.0,0.0,0.0,"(0.0, 0.0, 0.0, 0.0, 0.0, 0.0, 0.0, 0.0, 0.0)"
2019/10/07/19:23:56.222911,9961,1570443836,222545848,gyro_link,0.0,0.0,0.620805770381,0.783964409563,"(1.7976931348623157e+308, 0.0, 0.0, 0.0, 1.7976931348623157e+308, 0.0, 0.0, 0.0, 0.05)",0.0,0.0,0.00750491578358,"(1.7976931348623157e+308, 0.0, 0.0, 0.0, 1.7976931348623157e+308, 0.0, 0.0, 0.0, 0.05)",0.0,0.0,0.0,"(0.0, 0.0, 0.0, 0.0, 0.0, 0.0, 0.0, 0.0, 0.0)"
2019/10/07/19:23:56.283001,9962,1570443836,282577930,gyro_link,0.0,0.0,0.620805770381,0.783964409563,"(1.7976931348623157e+308, 0.0, 0.0, 0.0, 1.7976931348623157e+308, 0.0, 0.0, 0.0, 0.05)",0.0,0.0,-0.0274016692563,"(1.7976931348623157e+308, 0.0, 0.0, 0.0, 1.7976931348623157e+308, 0.0, 0.0, 0.0, 0.05)",0.0,0.0,0.0,"(0.0, 0.0, 0.0, 0.0, 0.0, 0.0, 0.0, 0.0, 0.0)"
2019/10/07/19:23:56.342982,9963,1570443836,342404606,gyro_link,0.0,0.0,0.620874181818,0.783910231054,"(1.7976931348623157e+308, 0.0, 0.0, 0.0, 1.7976931348623157e+308, 0.0, 0.0, 0.0, 0.05)",0.0,0.0,0.00418879020479,"(1.7976931348623157e+308, 0.0, 0.0, 0.0, 1.7976931348623157e+308, 0.0, 0.0, 0.0, 0.05)",0.0,0.0,0.0,"(0.0, 0.0, 0.0, 0.0, 0.0, 0.0, 0.0, 0.0, 0.0)"
2019/10/07/19:23:56.402622,9964,1570443836,402114217,gyro_link,0.0,0.0,0.620189854765,0.78445174743,"(1.7976931348623157e+308, 0.0, 0.0, 0.0, 1.7976931348623157e+308, 0.0, 0.0, 0.0, 0.05)",0.0,0.0,-0.0404916386463,"(1.7976931348623157e+308, 0.0, 0.0, 0.0, 1.7976931348623157e+308, 0.0, 0.0, 0.0, 0.05)",0.0,0.0,0.0,"(0.0, 0.0, 0.0, 0.0, 0.0, 0.0, 0.0, 0.0, 0.0)"
2019/10/07/19:23:56.462605,9965,1570443836,462167001,gyro_link,0.0,0.0,0.620326757977,0.784343491933,"(1.7976931348623157e+308, 0.0, 0.0, 0.0, 1.7976931348623157e+308, 0.0, 0.0, 0.0, 0.05)",0.0,0.0,0.00174532925199,"(1.7976931348623157e+308, 0.0, 0.0, 0.0, 1.7976931348623157e+308, 0.0, 0.0, 0.0, 0.05)",0.0,0.0,0.0,"(0.0, 0.0, 0.0, 0.0, 0.0, 0.0, 0.0, 0.0, 0.0)"
2019/10/07/19:23:56.522586,9966,1570443836,521940851,gyro_link,0.0,0.0,0.620052932662,0.784559979031,"(1.7976931348623157e+308, 0.0, 0.0, 0.0, 1.7976931348623157e+308, 0.0, 0.0, 0.0, 0.05)",0.0,0.0,0.00942477796077,"(1.7976931348623157e+308, 0.0, 0.0, 0.0, 1.7976931348623157e+308, 0.0, 0.0, 0.0, 0.05)",0.0,0.0,0.0,"(0.0, 0.0, 0.0, 0.0, 0.0, 0.0, 0.0, 0.0, 0.0)"
2019/10/07/19:23:56.582319,9967,1570443836,581811265,gyro_link,0.0,0.0,0.620052932662,0.784559979031,"(1.7976931348623157e+308, 0.0, 0.0, 0.0, 1.7976931348623157e+308, 0.0, 0.0, 0.0, 0.05)",0.0,0.0,-0.0274016692563,"(1.7976931348623157e+308, 0.0, 0.0, 0.0, 1.7976931348623157e+308, 0.0, 0.0, 0.0, 0.05)",0.0,0.0,0.0,"(0.0, 0.0, 0.0, 0.0, 0.0, 0.0, 0.0, 0.0, 0.0)"
2019/10/07/19:23:56.642080,9968,1570443836,641708557,gyro_link,0.0,0.0,0.620258308733,0.784397622669,"(1.7976931348623157e+308, 0.0, 0.0, 0.0, 1.7976931348623157e+308, 0.0, 0.0, 0.0, 0.05)",0.0,0.0,0.0272271363311,"(1.7976931348623157e+308, 0.0, 0.0, 0.0, 1.7976931348623157e+308, 0.0, 0.0, 0.0, 0.05)",0.0,0.0,0.0,"(0.0, 0.0, 0.0, 0.0, 0.0, 0.0, 0.0, 0.0, 0.0)"
2019/10/07/19:23:56.702027,9969,1570443836,701691829,gyro_link,0.0,0.0,0.620052932662,0.784559979031,"(1.7976931348623157e+308, 0.0, 0.0, 0.0, 1.7976931348623157e+308, 0.0, 0.0, 0.0, 0.05)",0.0,0.0,-0.0202458193231,"(1.7976931348623157e+308, 0.0, 0.0, 0.0, 1.7976931348623157e+308, 0.0, 0.0, 0.0, 0.05)",0.0,0.0,0.0,"(0.0, 0.0, 0.0, 0.0, 0.0, 0.0, 0.0, 0.0, 0.0)"
2019/10/07/19:23:56.761945,9970,1570443836,761485590,gyro_link,0.0,0.0,0.619984464527,0.78461408587,"(1.7976931348623157e+308, 0.0, 0.0, 0.0, 1.7976931348623157e+308, 0.0, 0.0, 0.0, 0.05)",0.0,0.0,-0.0363028484415,"(1.7976931348623157e+308, 0.0, 0.0, 0.0, 1.7976931348623157e+308, 0.0, 0.0, 0.0, 0.05)",0.0,0.0,0.0,"(0.0, 0.0, 0.0, 0.0, 0.0, 0.0, 0.0, 0.0, 0.0)"
2019/10/07/19:23:56.821731,9971,1570443836,821376883,gyro_link,0.0,0.0,0.619779031795,0.784776370533,"(1.7976931348623157e+308, 0.0, 0.0, 0.0, 1.7976931348623157e+308, 0.0, 0.0, 0.0, 0.05)",0.0,0.0,0.0233874119767,"(1.7976931348623157e+308, 0.0, 0.0, 0.0, 1.7976931348623157e+308, 0.0, 0.0, 0.0, 0.05)",0.0,0.0,0.0,"(0.0, 0.0, 0.0, 0.0, 0.0, 0.0, 0.0, 0.0, 0.0)"
2019/10/07/19:23:56.881744,9972,1570443836,881413384,gyro_link,0.0,0.0,0.619984464527,0.78461408587,"(1.7976931348623157e+308, 0.0, 0.0, 0.0, 1.7976931348623157e+308, 0.0, 0.0, 0.0, 0.05)",0.0,0.0,-0.00645771823238,"(1.7976931348623157e+308, 0.0, 0.0, 0.0, 1.7976931348623157e+308, 0.0, 0.0, 0.0, 0.05)",0.0,0.0,0.0,"(0.0, 0.0, 0.0, 0.0, 0.0, 0.0, 0.0, 0.0, 0.0)"
2019/10/07/19:23:56.940686,9973,1570443836,940139099,gyro_link,0.0,0.0,0.620121396075,0.784505866218,"(1.7976931348623157e+308, 0.0, 0.0, 0.0, 1.7976931348623157e+308, 0.0, 0.0, 0.0, 0.05)",0.0,0.0,0.00663225115758,"(1.7976931348623157e+308, 0.0, 0.0, 0.0, 1.7976931348623157e+308, 0.0, 0.0, 0.0, 0.05)",0.0,0.0,0.0,"(0.0, 0.0, 0.0, 0.0, 0.0, 0.0, 0.0, 0.0, 0.0)"
2019/10/07/19:23:56.998339,9974,1570443836,998086283,gyro_link,0.0,0.0,0.61964205304,0.784884530427,"(1.7976931348623157e+308, 0.0, 0.0, 0.0, 1.7976931348623157e+308, 0.0, 0.0, 0.0, 0.05)",0.0,0.0,0.0111701072128,"(1.7976931348623157e+308, 0.0, 0.0, 0.0, 1.7976931348623157e+308, 0.0, 0.0, 0.0, 0.05)",0.0,0.0,0.0,"(0.0, 0.0, 0.0, 0.0, 0.0, 0.0, 0.0, 0.0, 0.0)"
2019/10/07/19:23:57.020413,9975,1570443837,20055167,gyro_link,0.0,0.0,0.619984464527,0.78461408587,"(1.7976931348623157e+308, 0.0, 0.0, 0.0, 1.7976931348623157e+308, 0.0, 0.0, 0.0, 0.05)",0.0,0.0,0.061261056745,"(1.7976931348623157e+308, 0.0, 0.0, 0.0, 1.7976931348623157e+308, 0.0, 0.0, 0.0, 0.05)",0.0,0.0,0.0,"(0.0, 0.0, 0.0, 0.0, 0.0, 0.0, 0.0, 0.0, 0.0)"
2019/10/07/19:23:57.078510,9976,1570443837,77856930,gyro_link,0.0,0.0,0.620668933325,0.784072748669,"(1.7976931348623157e+308, 0.0, 0.0, 0.0, 1.7976931348623157e+308, 0.0, 0.0, 0.0, 0.05)",0.0,0.0,-0.011344640138,"(1.7976931348623157e+308, 0.0, 0.0, 0.0, 1.7976931348623157e+308, 0.0, 0.0, 0.0, 0.05)",0.0,0.0,0.0,"(0.0, 0.0, 0.0, 0.0, 0.0, 0.0, 0.0, 0.0, 0.0)"
2019/10/07/19:23:57.100267,9977,1570443837,99888836,gyro_link,0.0,0.0,0.620532077362,0.784181063891,"(1.7976931348623157e+308, 0.0, 0.0, 0.0, 1.7976931348623157e+308, 0.0, 0.0, 0.0, 0.05)",0.0,0.0,-0.0183259571459,"(1.7976931348623157e+308, 0.0, 0.0, 0.0, 1.7976931348623157e+308, 0.0, 0.0, 0.0, 0.05)",0.0,0.0,0.0,"(0.0, 0.0, 0.0, 0.0, 0.0, 0.0, 0.0, 0.0, 0.0)"
2019/10/07/19:23:57.158075,9978,1570443837,157744818,gyro_link,0.0,0.0,0.620326757977,0.784343491933,"(1.7976931348623157e+308, 0.0, 0.0, 0.0, 1.7976931348623157e+308, 0.0, 0.0, 0.0, 0.05)",0.0,0.0,-0.0335103216383,"(1.7976931348623157e+308, 0.0, 0.0, 0.0, 1.7976931348623157e+308, 0.0, 0.0, 0.0, 0.05)",0.0,0.0,0.0,"(0.0, 0.0, 0.0, 0.0, 0.0, 0.0, 0.0, 0.0, 0.0)"
2019/10/07/19:23:57.180012,9979,1570443837,179656194,gyro_link,0.0,0.0,0.620052932662,0.784559979031,"(1.7976931348623157e+308, 0.0, 0.0, 0.0, 1.7976931348623157e+308, 0.0, 0.0, 0.0, 0.05)",0.0,0.0,-0.0363028484415,"(1.7976931348623157e+308, 0.0, 0.0, 0.0, 1.7976931348623157e+308, 0.0, 0.0, 0.0, 0.05)",0.0,0.0,0.0,"(0.0, 0.0, 0.0, 0.0, 0.0, 0.0, 0.0, 0.0, 0.0)"
2019/10/07/19:23:57.240055,9980,1570443837,239732322,gyro_link,0.0,0.0,0.619984464527,0.78461408587,"(1.7976931348623157e+308, 0.0, 0.0, 0.0, 1.7976931348623157e+308, 0.0, 0.0, 0.0, 0.05)",0.0,0.0,0.000174532925199,"(1.7976931348623157e+308, 0.0, 0.0, 0.0, 1.7976931348623157e+308, 0.0, 0.0, 0.0, 0.05)",0.0,0.0,0.0,"(0.0, 0.0, 0.0, 0.0, 0.0, 0.0, 0.0, 0.0, 0.0)"
2019/10/07/19:23:57.298021,9981,1570443837,297616878,gyro_link,0.0,0.0,0.620121396075,0.784505866218,"(1.7976931348623157e+308, 0.0, 0.0, 0.0, 1.7976931348623157e+308, 0.0, 0.0, 0.0, 0.05)",0.0,0.0,0.00558505360638,"(1.7976931348623157e+308, 0.0, 0.0, 0.0, 1.7976931348623157e+308, 0.0, 0.0, 0.0, 0.05)",0.0,0.0,0.0,"(0.0, 0.0, 0.0, 0.0, 0.0, 0.0, 0.0, 0.0, 0.0)"
2019/10/07/19:23:57.319833,9982,1570443837,319520009,gyro_link,0.0,0.0,0.620189854765,0.78445174743,"(1.7976931348623157e+308, 0.0, 0.0, 0.0, 1.7976931348623157e+308, 0.0, 0.0, 0.0, 0.05)",0.0,0.0,0.00191986217719,"(1.7976931348623157e+308, 0.0, 0.0, 0.0, 1.7976931348623157e+308, 0.0, 0.0, 0.0, 0.05)",0.0,0.0,0.0,"(0.0, 0.0, 0.0, 0.0, 0.0, 0.0, 0.0, 0.0, 0.0)"
2019/10/07/19:23:57.377995,9983,1570443837,377494371,gyro_link,0.0,0.0,0.619779031795,0.784776370533,"(1.7976931348623157e+308, 0.0, 0.0, 0.0, 1.7976931348623157e+308, 0.0, 0.0, 0.0, 0.05)",0.0,0.0,0.00244346095279,"(1.7976931348623157e+308, 0.0, 0.0, 0.0, 1.7976931348623157e+308, 0.0, 0.0, 0.0, 0.05)",0.0,0.0,0.0,"(0.0, 0.0, 0.0, 0.0, 0.0, 0.0, 0.0, 0.0, 0.0)"
2019/10/07/19:23:57.399695,9984,1570443837,399393897,gyro_link,0.0,0.0,0.619847514093,0.784722281621,"(1.7976931348623157e+308, 0.0, 0.0, 0.0, 1.7976931348623157e+308, 0.0, 0.0, 0.0, 0.05)",0.0,0.0,0.0150098315672,"(1.7976931348623157e+308, 0.0, 0.0, 0.0, 1.7976931348623157e+308, 0.0, 0.0, 0.0, 0.05)",0.0,0.0,0.0,"(0.0, 0.0, 0.0, 0.0, 0.0, 0.0, 0.0, 0.0, 0.0)"
2019/10/07/19:23:57.459963,9985,1570443837,459713807,gyro_link,0.0,0.0,0.619710544777,0.784830453469,"(1.7976931348623157e+308, 0.0, 0.0, 0.0, 1.7976931348623157e+308, 0.0, 0.0, 0.0, 0.05)",0.0,0.0,-0.0165806278939,"(1.7976931348623157e+308, 0.0, 0.0, 0.0, 1.7976931348623157e+308, 0.0, 0.0, 0.0, 0.05)",0.0,0.0,0.0,"(0.0, 0.0, 0.0, 0.0, 0.0, 0.0, 0.0, 0.0, 0.0)"
2019/10/07/19:23:57.519981,9986,1570443837,519769126,gyro_link,0.0,0.0,0.619710544777,0.784830453469,"(1.7976931348623157e+308, 0.0, 0.0, 0.0, 1.7976931348623157e+308, 0.0, 0.0, 0.0, 0.05)",0.0,0.0,-0.000698131700798,"(1.7976931348623157e+308, 0.0, 0.0, 0.0, 1.7976931348623157e+308, 0.0, 0.0, 0.0, 0.05)",0.0,0.0,0.0,"(0.0, 0.0, 0.0, 0.0, 0.0, 0.0, 0.0, 0.0, 0.0)"
2019/10/07/19:23:57.579671,9987,1570443837,579282000,gyro_link,0.0,0.0,0.619299523583,0.785154825553,"(1.7976931348623157e+308, 0.0, 0.0, 0.0, 1.7976931348623157e+308, 0.0, 0.0, 0.0, 0.05)",0.0,0.0,-0.00733038285838,"(1.7976931348623157e+308, 0.0, 0.0, 0.0, 1.7976931348623157e+308, 0.0, 0.0, 0.0, 0.05)",0.0,0.0,0.0,"(0.0, 0.0, 0.0, 0.0, 0.0, 0.0, 0.0, 0.0, 0.0)"
2019/10/07/19:23:57.639584,9988,1570443837,639131504,gyro_link,0.0,0.0,0.619368038909,0.785100778485,"(1.7976931348623157e+308, 0.0, 0.0, 0.0, 1.7976931348623157e+308, 0.0, 0.0, 0.0, 0.05)",0.0,0.0,-0.0211184839491,"(1.7976931348623157e+308, 0.0, 0.0, 0.0, 1.7976931348623157e+308, 0.0, 0.0, 0.0, 0.05)",0.0,0.0,0.0,"(0.0, 0.0, 0.0, 0.0, 0.0, 0.0, 0.0, 0.0, 0.0)"
2019/10/07/19:23:57.699259,9989,1570443837,698933998,gyro_link,0.0,0.0,0.619368038909,0.785100778485,"(1.7976931348623157e+308, 0.0, 0.0, 0.0, 1.7976931348623157e+308, 0.0, 0.0, 0.0, 0.05)",0.0,0.0,0.0190240888467,"(1.7976931348623157e+308, 0.0, 0.0, 0.0, 1.7976931348623157e+308, 0.0, 0.0, 0.0, 0.05)",0.0,0.0,0.0,"(0.0, 0.0, 0.0, 0.0, 0.0, 0.0, 0.0, 0.0, 0.0)"
2019/10/07/19:23:57.759099,9990,1570443837,758724803,gyro_link,0.0,0.0,0.619025415122,0.785370954029,"(1.7976931348623157e+308, 0.0, 0.0, 0.0, 1.7976931348623157e+308, 0.0, 0.0, 0.0, 0.05)",0.0,0.0,-0.0237364778271,"(1.7976931348623157e+308, 0.0, 0.0, 0.0, 1.7976931348623157e+308, 0.0, 0.0, 0.0, 0.05)",0.0,0.0,0.0,"(0.0, 0.0, 0.0, 0.0, 0.0, 0.0, 0.0, 0.0, 0.0)"
2019/10/07/19:23:57.819428,9991,1570443837,818846511,gyro_link,0.0,0.0,0.61909394931,0.785316930881,"(1.7976931348623157e+308, 0.0, 0.0, 0.0, 1.7976931348623157e+308, 0.0, 0.0, 0.0, 0.05)",0.0,0.0,-0.013962634016,"(1.7976931348623157e+308, 0.0, 0.0, 0.0, 1.7976931348623157e+308, 0.0, 0.0, 0.0, 0.05)",0.0,0.0,0.0,"(0.0, 0.0, 0.0, 0.0, 0.0, 0.0, 0.0, 0.0, 0.0)"
2019/10/07/19:23:57.879263,9992,1570443837,878853141,gyro_link,0.0,0.0,0.619025415122,0.785370954029,"(1.7976931348623157e+308, 0.0, 0.0, 0.0, 1.7976931348623157e+308, 0.0, 0.0, 0.0, 0.05)",0.0,0.0,0.0162315620435,"(1.7976931348623157e+308, 0.0, 0.0, 0.0, 1.7976931348623157e+308, 0.0, 0.0, 0.0, 0.05)",0.0,0.0,0.0,"(0.0, 0.0, 0.0, 0.0, 0.0, 0.0, 0.0, 0.0, 0.0)"
2019/10/07/19:23:57.939114,9993,1570443837,938726306,gyro_link,0.0,0.0,0.618682673481,0.78564098005,"(1.7976931348623157e+308, 0.0, 0.0, 0.0, 1.7976931348623157e+308, 0.0, 0.0, 0.0, 0.05)",0.0,0.0,-0.0249582083035,"(1.7976931348623157e+308, 0.0, 0.0, 0.0, 1.7976931348623157e+308, 0.0, 0.0, 0.0, 0.05)",0.0,0.0,0.0,"(0.0, 0.0, 0.0, 0.0, 0.0, 0.0, 0.0, 0.0, 0.0)"
2019/10/07/19:23:57.999199,9994,1570443837,998636769,gyro_link,0.0,0.0,0.618751231234,0.78558698681,"(1.7976931348623157e+308, 0.0, 0.0, 0.0, 1.7976931348623157e+308, 0.0, 0.0, 0.0, 0.05)",0.0,0.0,-0.0013962634016,"(1.7976931348623157e+308, 0.0, 0.0, 0.0, 1.7976931348623157e+308, 0.0, 0.0, 0.0, 0.05)",0.0,0.0,0.0,"(0.0, 0.0, 0.0, 0.0, 0.0, 0.0, 0.0, 0.0, 0.0)"
2019/10/07/19:23:58.058673,9995,1570443838,58279011,gyro_link,0.0,0.0,0.61854554384,0.78574894858,"(1.7976931348623157e+308, 0.0, 0.0, 0.0, 1.7976931348623157e+308, 0.0, 0.0, 0.0, 0.05)",0.0,0.0,0.0158824961931,"(1.7976931348623157e+308, 0.0, 0.0, 0.0, 1.7976931348623157e+308, 0.0, 0.0, 0.0, 0.05)",0.0,0.0,0.0,"(0.0, 0.0, 0.0, 0.0, 0.0, 0.0, 0.0, 0.0, 0.0)"
2019/10/07/19:23:58.117552,9996,1570443838,117167308,gyro_link,0.0,0.0,0.618476971954,0.78580292387,"(1.7976931348623157e+308, 0.0, 0.0, 0.0, 1.7976931348623157e+308, 0.0, 0.0, 0.0, 0.05)",0.0,0.0,-0.0275762021815,"(1.7976931348623157e+308, 0.0, 0.0, 0.0, 1.7976931348623157e+308, 0.0, 0.0, 0.0, 0.05)",0.0,0.0,0.0,"(0.0, 0.0, 0.0, 0.0, 0.0, 0.0, 0.0, 0.0, 0.0)"
2019/10/07/19:23:58.175360,9997,1570443838,174935665,gyro_link,0.0,0.0,0.61854554384,0.78574894858,"(1.7976931348623157e+308, 0.0, 0.0, 0.0, 1.7976931348623157e+308, 0.0, 0.0, 0.0, 0.05)",0.0,0.0,0.0101229096616,"(1.7976931348623157e+308, 0.0, 0.0, 0.0, 1.7976931348623157e+308, 0.0, 0.0, 0.0, 0.05)",0.0,0.0,0.0,"(0.0, 0.0, 0.0, 0.0, 0.0, 0.0, 0.0, 0.0, 0.0)"
2019/10/07/19:23:58.198536,9998,1570443838,198021709,gyro_link,0.0,0.0,0.61854554384,0.78574894858,"(1.7976931348623157e+308, 0.0, 0.0, 0.0, 1.7976931348623157e+308, 0.0, 0.0, 0.0, 0.05)",0.0,0.0,-0.00994837673637,"(1.7976931348623157e+308, 0.0, 0.0, 0.0, 1.7976931348623157e+308, 0.0, 0.0, 0.0, 0.05)",0.0,0.0,0.0,"(0.0, 0.0, 0.0, 0.0, 0.0, 0.0, 0.0, 0.0, 0.0)"
2019/10/07/19:23:58.257050,9999,1570443838,256778489,gyro_link,0.0,0.0,0.618339814052,0.785910856496,"(1.7976931348623157e+308, 0.0, 0.0, 0.0, 1.7976931348623157e+308, 0.0, 0.0, 0.0, 0.05)",0.0,0.0,0.00663225115758,"(1.7976931348623157e+308, 0.0, 0.0, 0.0, 1.7976931348623157e+308, 0.0, 0.0, 0.0, 0.05)",0.0,0.0,0.0,"(0.0, 0.0, 0.0, 0.0, 0.0, 0.0, 0.0, 0.0, 0.0)"
2019/10/07/19:23:58.315220,10000,1570443838,314895883,gyro_link,0.0,0.0,0.61772237046,0.786396257006,"(1.7976931348623157e+308, 0.0, 0.0, 0.0, 1.7976931348623157e+308, 0.0, 0.0, 0.0, 0.05)",0.0,0.0,-0.0415388361975,"(1.7976931348623157e+308, 0.0, 0.0, 0.0, 1.7976931348623157e+308, 0.0, 0.0, 0.0, 0.05)",0.0,0.0,0.0,"(0.0, 0.0, 0.0, 0.0, 0.0, 0.0, 0.0, 0.0, 0.0)"
2019/10/07/19:23:58.337391,10001,1570443838,336809000,gyro_link,0.0,0.0,0.617585109014,0.78650405792,"(1.7976931348623157e+308, 0.0, 0.0, 0.0, 1.7976931348623157e+308, 0.0, 0.0, 0.0, 0.05)",0.0,0.0,-0.0101229096616,"(1.7976931348623157e+308, 0.0, 0.0, 0.0, 1.7976931348623157e+308, 0.0, 0.0, 0.0, 0.05)",0.0,0.0,0.0,"(0.0, 0.0, 0.0, 0.0, 0.0, 0.0, 0.0, 0.0, 0.0)"
2019/10/07/19:23:58.397040,10002,1570443838,396670618,gyro_link,0.0,0.0,0.617653742089,0.786450160458,"(1.7976931348623157e+308, 0.0, 0.0, 0.0, 1.7976931348623157e+308, 0.0, 0.0, 0.0, 0.05)",0.0,0.0,-0.0185004900711,"(1.7976931348623157e+308, 0.0, 0.0, 0.0, 1.7976931348623157e+308, 0.0, 0.0, 0.0, 0.05)",0.0,0.0,0.0,"(0.0, 0.0, 0.0, 0.0, 0.0, 0.0, 0.0, 0.0, 0.0)"
2019/10/07/19:23:58.455110,10003,1570443838,454563504,gyro_link,0.0,0.0,0.61772237046,0.786396257006,"(1.7976931348623157e+308, 0.0, 0.0, 0.0, 1.7976931348623157e+308, 0.0, 0.0, 0.0, 0.05)",0.0,0.0,0.00750491578358,"(1.7976931348623157e+308, 0.0, 0.0, 0.0, 1.7976931348623157e+308, 0.0, 0.0, 0.0, 0.05)",0.0,0.0,0.0,"(0.0, 0.0, 0.0, 0.0, 0.0, 0.0, 0.0, 0.0, 0.0)"
2019/10/07/19:23:58.476760,10004,1570443838,476403657,gyro_link,0.0,0.0,0.617653742089,0.786450160458,"(1.7976931348623157e+308, 0.0, 0.0, 0.0, 1.7976931348623157e+308, 0.0, 0.0, 0.0, 0.05)",0.0,0.0,-0.0102974425868,"(1.7976931348623157e+308, 0.0, 0.0, 0.0, 1.7976931348623157e+308, 0.0, 0.0, 0.0, 0.05)",0.0,0.0,0.0,"(0.0, 0.0, 0.0, 0.0, 0.0, 0.0, 0.0, 0.0, 0.0)"
2019/10/07/19:23:58.536737,10005,1570443838,536402364,gyro_link,0.0,0.0,0.617310529686,0.78671958787,"(1.7976931348623157e+308, 0.0, 0.0, 0.0, 1.7976931348623157e+308, 0.0, 0.0, 0.0, 0.05)",0.0,0.0,0.0012217304764,"(1.7976931348623157e+308, 0.0, 0.0, 0.0, 1.7976931348623157e+308, 0.0, 0.0, 0.0, 0.05)",0.0,0.0,0.0,"(0.0, 0.0, 0.0, 0.0, 0.0, 0.0, 0.0, 0.0, 0.0)"
2019/10/07/19:23:58.594395,10006,1570443838,593973745,gyro_link,0.0,0.0,0.617379181571,0.786665714369,"(1.7976931348623157e+308, 0.0, 0.0, 0.0, 1.7976931348623157e+308, 0.0, 0.0, 0.0, 0.05)",0.0,0.0,-0.00349065850399,"(1.7976931348623157e+308, 0.0, 0.0, 0.0, 1.7976931348623157e+308, 0.0, 0.0, 0.0, 0.05)",0.0,0.0,0.0,"(0.0, 0.0, 0.0, 0.0, 0.0, 0.0, 0.0, 0.0, 0.0)"
2019/10/07/19:23:58.616429,10007,1570443838,615911305,gyro_link,0.0,0.0,0.617447828754,0.786611834876,"(1.7976931348623157e+308, 0.0, 0.0, 0.0, 1.7976931348623157e+308, 0.0, 0.0, 0.0, 0.05)",0.0,0.0,0.00418879020479,"(1.7976931348623157e+308, 0.0, 0.0, 0.0, 1.7976931348623157e+308, 0.0, 0.0, 0.0, 0.05)",0.0,0.0,0.0,"(0.0, 0.0, 0.0, 0.0, 0.0, 0.0, 0.0, 0.0, 0.0)"
2019/10/07/19:23:58.674330,10008,1570443838,673794827,gyro_link,0.0,0.0,0.617516471235,0.786557949393,"(1.7976931348623157e+308, 0.0, 0.0, 0.0, 1.7976931348623157e+308, 0.0, 0.0, 0.0, 0.05)",0.0,0.0,-0.0321140582367,"(1.7976931348623157e+308, 0.0, 0.0, 0.0, 1.7976931348623157e+308, 0.0, 0.0, 0.0, 0.05)",0.0,0.0,0.0,"(0.0, 0.0, 0.0, 0.0, 0.0, 0.0, 0.0, 0.0, 0.0)"
2019/10/07/19:23:58.696237,10009,1570443838,695641044,gyro_link,0.0,0.0,0.617173211813,0.7868273169,"(1.7976931348623157e+308, 0.0, 0.0, 0.0, 1.7976931348623157e+308, 0.0, 0.0, 0.0, 0.05)",0.0,0.0,-0.0404916386463,"(1.7976931348623157e+308, 0.0, 0.0, 0.0, 1.7976931348623157e+308, 0.0, 0.0, 0.0, 0.05)",0.0,0.0,0.0,"(0.0, 0.0, 0.0, 0.0, 0.0, 0.0, 0.0, 0.0, 0.0)"
2019/10/07/19:23:58.755825,10010,1570443838,755502471,gyro_link,0.0,0.0,0.617104545827,0.786881172427,"(1.7976931348623157e+308, 0.0, 0.0, 0.0, 1.7976931348623157e+308, 0.0, 0.0, 0.0, 0.05)",0.0,0.0,0.00837758040957,"(1.7976931348623157e+308, 0.0, 0.0, 0.0, 1.7976931348623157e+308, 0.0, 0.0, 0.0, 0.05)",0.0,0.0,0.0,"(0.0, 0.0, 0.0, 0.0, 0.0, 0.0, 0.0, 0.0, 0.0)"
2019/10/07/19:23:58.815861,10011,1570443838,815371324,gyro_link,0.0,0.0,0.617104545827,0.786881172427,"(1.7976931348623157e+308, 0.0, 0.0, 0.0, 1.7976931348623157e+308, 0.0, 0.0, 0.0, 0.05)",0.0,0.0,0.00575958653158,"(1.7976931348623157e+308, 0.0, 0.0, 0.0, 1.7976931348623157e+308, 0.0, 0.0, 0.0, 0.05)",0.0,0.0,0.0,"(0.0, 0.0, 0.0, 0.0, 0.0, 0.0, 0.0, 0.0, 0.0)"
2019/10/07/19:23:58.876149,10012,1570443838,875634411,gyro_link,0.0,0.0,0.617310529686,0.78671958787,"(1.7976931348623157e+308, 0.0, 0.0, 0.0, 1.7976931348623157e+308, 0.0, 0.0, 0.0, 0.05)",0.0,0.0,-0.0151843644924,"(1.7976931348623157e+308, 0.0, 0.0, 0.0, 1.7976931348623157e+308, 0.0, 0.0, 0.0, 0.05)",0.0,0.0,0.0,"(0.0, 0.0, 0.0, 0.0, 0.0, 0.0, 0.0, 0.0, 0.0)"
2019/10/07/19:23:58.935820,10013,1570443838,935439688,gyro_link,0.0,0.0,0.617035875141,0.786935021961,"(1.7976931348623157e+308, 0.0, 0.0, 0.0, 1.7976931348623157e+308, 0.0, 0.0, 0.0, 0.05)",0.0,0.0,0.00767944870878,"(1.7976931348623157e+308, 0.0, 0.0, 0.0, 1.7976931348623157e+308, 0.0, 0.0, 0.0, 0.05)",0.0,0.0,0.0,"(0.0, 0.0, 0.0, 0.0, 0.0, 0.0, 0.0, 0.0, 0.0)"
2019/10/07/19:23:58.995838,10014,1570443838,995377388,gyro_link,0.0,0.0,0.6172418731,0.786773455381,"(1.7976931348623157e+308, 0.0, 0.0, 0.0, 1.7976931348623157e+308, 0.0, 0.0, 0.0, 0.05)",0.0,0.0,-0.00471238898038,"(1.7976931348623157e+308, 0.0, 0.0, 0.0, 1.7976931348623157e+308, 0.0, 0.0, 0.0, 0.05)",0.0,0.0,0.0,"(0.0, 0.0, 0.0, 0.0, 0.0, 0.0, 0.0, 0.0, 0.0)"
2019/10/07/19:23:59.056068,10015,1570443839,55641630,gyro_link,0.0,0.0,0.617173211813,0.7868273169,"(1.7976931348623157e+308, 0.0, 0.0, 0.0, 1.7976931348623157e+308, 0.0, 0.0, 0.0, 0.05)",0.0,0.0,-0.0214675497995,"(1.7976931348623157e+308, 0.0, 0.0, 0.0, 1.7976931348623157e+308, 0.0, 0.0, 0.0, 0.05)",0.0,0.0,0.0,"(0.0, 0.0, 0.0, 0.0, 0.0, 0.0, 0.0, 0.0, 0.0)"
2019/10/07/19:23:59.115529,10016,1570443839,115190323,gyro_link,0.0,0.0,0.616761145412,0.787150360167,"(1.7976931348623157e+308, 0.0, 0.0, 0.0, 1.7976931348623157e+308, 0.0, 0.0, 0.0, 0.05)",0.0,0.0,0.00401425727959,"(1.7976931348623157e+308, 0.0, 0.0, 0.0, 1.7976931348623157e+308, 0.0, 0.0, 0.0, 0.05)",0.0,0.0,0.0,"(0.0, 0.0, 0.0, 0.0, 0.0, 0.0, 0.0, 0.0, 0.0)"
2019/10/07/19:23:59.175256,10017,1570443839,174895326,gyro_link,0.0,0.0,0.617104545827,0.786881172427,"(1.7976931348623157e+308, 0.0, 0.0, 0.0, 1.7976931348623157e+308, 0.0, 0.0, 0.0, 0.05)",0.0,0.0,0.0221656815003,"(1.7976931348623157e+308, 0.0, 0.0, 0.0, 1.7976931348623157e+308, 0.0, 0.0, 0.0, 0.05)",0.0,0.0,0.0,"(0.0, 0.0, 0.0, 0.0, 0.0, 0.0, 0.0, 0.0, 0.0)"
2019/10/07/19:23:59.235280,10018,1570443839,234999701,gyro_link,0.0,0.0,0.6172418731,0.786773455381,"(1.7976931348623157e+308, 0.0, 0.0, 0.0, 1.7976931348623157e+308, 0.0, 0.0, 0.0, 0.05)",0.0,0.0,-0.0012217304764,"(1.7976931348623157e+308, 0.0, 0.0, 0.0, 1.7976931348623157e+308, 0.0, 0.0, 0.0, 0.05)",0.0,0.0,0.0,"(0.0, 0.0, 0.0, 0.0, 0.0, 0.0, 0.0, 0.0, 0.0)"
2019/10/07/19:23:59.295564,10019,1570443839,295061279,gyro_link,0.0,0.0,0.616623752364,0.787257993304,"(1.7976931348623157e+308, 0.0, 0.0, 0.0, 1.7976931348623157e+308, 0.0, 0.0, 0.0, 0.05)",0.0,0.0,-0.00593411945678,"(1.7976931348623157e+308, 0.0, 0.0, 0.0, 1.7976931348623157e+308, 0.0, 0.0, 0.0, 0.05)",0.0,0.0,0.0,"(0.0, 0.0, 0.0, 0.0, 0.0, 0.0, 0.0, 0.0, 0.0)"
2019/10/07/19:23:59.355330,10020,1570443839,354820673,gyro_link,0.0,0.0,0.616898519672,0.787042703051,"(1.7976931348623157e+308, 0.0, 0.0, 0.0, 1.7976931348623157e+308, 0.0, 0.0, 0.0, 0.05)",0.0,0.0,0.0106465084372,"(1.7976931348623157e+308, 0.0, 0.0, 0.0, 1.7976931348623157e+308, 0.0, 0.0, 0.0, 0.05)",0.0,0.0,0.0,"(0.0, 0.0, 0.0, 0.0, 0.0, 0.0, 0.0, 0.0, 0.0)"
2019/10/07/19:23:59.414158,10021,1570443839,413655210,gyro_link,0.0,0.0,0.6172418731,0.786773455381,"(1.7976931348623157e+308, 0.0, 0.0, 0.0, 1.7976931348623157e+308, 0.0, 0.0, 0.0, 0.05)",0.0,0.0,0.00785398163397,"(1.7976931348623157e+308, 0.0, 0.0, 0.0, 1.7976931348623157e+308, 0.0, 0.0, 0.0, 0.05)",0.0,0.0,0.0,"(0.0, 0.0, 0.0, 0.0, 0.0, 0.0, 0.0, 0.0, 0.0)"
2019/10/07/19:23:59.471737,10022,1570443839,471400584,gyro_link,0.0,0.0,0.616692451236,0.787204179733,"(1.7976931348623157e+308, 0.0, 0.0, 0.0, 1.7976931348623157e+308, 0.0, 0.0, 0.0, 0.05)",0.0,0.0,-0.0197222205475,"(1.7976931348623157e+308, 0.0, 0.0, 0.0, 1.7976931348623157e+308, 0.0, 0.0, 0.0, 0.05)",0.0,0.0,0.0,"(0.0, 0.0, 0.0, 0.0, 0.0, 0.0, 0.0, 0.0, 0.0)"
2019/10/07/19:23:59.494751,10023,1570443839,494385452,gyro_link,0.0,0.0,0.616692451236,0.787204179733,"(1.7976931348623157e+308, 0.0, 0.0, 0.0, 1.7976931348623157e+308, 0.0, 0.0, 0.0, 0.05)",0.0,0.0,0.0,"(1.7976931348623157e+308, 0.0, 0.0, 0.0, 1.7976931348623157e+308, 0.0, 0.0, 0.0, 0.05)",0.0,0.0,0.0,"(0.0, 0.0, 0.0, 0.0, 0.0, 0.0, 0.0, 0.0, 0.0)"
2019/10/07/19:23:59.553569,10024,1570443839,553131617,gyro_link,0.0,0.0,0.616761145412,0.787150360167,"(1.7976931348623157e+308, 0.0, 0.0, 0.0, 1.7976931348623157e+308, 0.0, 0.0, 0.0, 0.05)",0.0,0.0,0.00907571211037,"(1.7976931348623157e+308, 0.0, 0.0, 0.0, 1.7976931348623157e+308, 0.0, 0.0, 0.0, 0.05)",0.0,0.0,0.0,"(0.0, 0.0, 0.0, 0.0, 0.0, 0.0, 0.0, 0.0, 0.0)"
2019/10/07/19:23:59.611688,10025,1570443839,611228260,gyro_link,0.0,0.0,0.616898519672,0.787042703051,"(1.7976931348623157e+308, 0.0, 0.0, 0.0, 1.7976931348623157e+308, 0.0, 0.0, 0.0, 0.05)",0.0,0.0,-0.00855211333477,"(1.7976931348623157e+308, 0.0, 0.0, 0.0, 1.7976931348623157e+308, 0.0, 0.0, 0.0, 0.05)",0.0,0.0,0.0,"(0.0, 0.0, 0.0, 0.0, 0.0, 0.0, 0.0, 0.0, 0.0)"
2019/10/07/19:23:59.633415,10026,1570443839,633018040,gyro_link,0.0,0.0,0.616761145412,0.787150360167,"(1.7976931348623157e+308, 0.0, 0.0, 0.0, 1.7976931348623157e+308, 0.0, 0.0, 0.0, 0.05)",0.0,0.0,-0.0212930168743,"(1.7976931348623157e+308, 0.0, 0.0, 0.0, 1.7976931348623157e+308, 0.0, 0.0, 0.0, 0.05)",0.0,0.0,0.0,"(0.0, 0.0, 0.0, 0.0, 0.0, 0.0, 0.0, 0.0, 0.0)"
2019/10/07/19:23:59.691425,10027,1570443839,691025099,gyro_link,0.0,0.0,0.616692451236,0.787204179733,"(1.7976931348623157e+308, 0.0, 0.0, 0.0, 1.7976931348623157e+308, 0.0, 0.0, 0.0, 0.05)",0.0,0.0,0.00767944870878,"(1.7976931348623157e+308, 0.0, 0.0, 0.0, 1.7976931348623157e+308, 0.0, 0.0, 0.0, 0.05)",0.0,0.0,0.0,"(0.0, 0.0, 0.0, 0.0, 0.0, 0.0, 0.0, 0.0, 0.0)"
2019/10/07/19:23:59.713416,10028,1570443839,713108167,gyro_link,0.0,0.0,0.616692451236,0.787204179733,"(1.7976931348623157e+308, 0.0, 0.0, 0.0, 1.7976931348623157e+308, 0.0, 0.0, 0.0, 0.05)",0.0,0.0,-0.00191986217719,"(1.7976931348623157e+308, 0.0, 0.0, 0.0, 1.7976931348623157e+308, 0.0, 0.0, 0.0, 0.05)",0.0,0.0,0.0,"(0.0, 0.0, 0.0, 0.0, 0.0, 0.0, 0.0, 0.0, 0.0)"
2019/10/07/19:23:59.771287,10029,1570443839,770920294,gyro_link,0.0,0.0,0.616761145412,0.787150360167,"(1.7976931348623157e+308, 0.0, 0.0, 0.0, 1.7976931348623157e+308, 0.0, 0.0, 0.0, 0.05)",0.0,0.0,-0.00314159265359,"(1.7976931348623157e+308, 0.0, 0.0, 0.0, 1.7976931348623157e+308, 0.0, 0.0, 0.0, 0.05)",0.0,0.0,0.0,"(0.0, 0.0, 0.0, 0.0, 0.0, 0.0, 0.0, 0.0, 0.0)"
2019/10/07/19:23:59.793190,10030,1570443839,792791307,gyro_link,0.0,0.0,0.616692451236,0.787204179733,"(1.7976931348623157e+308, 0.0, 0.0, 0.0, 1.7976931348623157e+308, 0.0, 0.0, 0.0, 0.05)",0.0,0.0,-0.01308996939,"(1.7976931348623157e+308, 0.0, 0.0, 0.0, 1.7976931348623157e+308, 0.0, 0.0, 0.0, 0.05)",0.0,0.0,0.0,"(0.0, 0.0, 0.0, 0.0, 0.0, 0.0, 0.0, 0.0, 0.0)"
2019/10/07/19:23:59.850980,10031,1570443839,850527188,gyro_link,0.0,0.0,0.616417627574,0.787419398044,"(1.7976931348623157e+308, 0.0, 0.0, 0.0, 1.7976931348623157e+308, 0.0, 0.0, 0.0, 0.05)",0.0,0.0,-0.00959931088597,"(1.7976931348623157e+308, 0.0, 0.0, 0.0, 1.7976931348623157e+308, 0.0, 0.0, 0.0, 0.05)",0.0,0.0,0.0,"(0.0, 0.0, 0.0, 0.0, 0.0, 0.0, 0.0, 0.0, 0.0)"
2019/10/07/19:23:59.872912,10032,1570443839,872605263,gyro_link,0.0,0.0,0.616417627574,0.787419398044,"(1.7976931348623157e+308, 0.0, 0.0, 0.0, 1.7976931348623157e+308, 0.0, 0.0, 0.0, 0.05)",0.0,0.0,0.00279252680319,"(1.7976931348623157e+308, 0.0, 0.0, 0.0, 1.7976931348623157e+308, 0.0, 0.0, 0.0, 0.05)",0.0,0.0,0.0,"(0.0, 0.0, 0.0, 0.0, 0.0, 0.0, 0.0, 0.0, 0.0)"
2019/10/07/19:23:59.932851,10033,1570443839,932387768,gyro_link,0.0,0.0,0.616417627574,0.787419398044,"(1.7976931348623157e+308, 0.0, 0.0, 0.0, 1.7976931348623157e+308, 0.0, 0.0, 0.0, 0.05)",0.0,0.0,-0.00907571211037,"(1.7976931348623157e+308, 0.0, 0.0, 0.0, 1.7976931348623157e+308, 0.0, 0.0, 0.0, 0.05)",0.0,0.0,0.0,"(0.0, 0.0, 0.0, 0.0, 0.0, 0.0, 0.0, 0.0, 0.0)"
2019/10/07/19:23:59.990777,10034,1570443839,990357830,gyro_link,0.0,0.0,0.616486340532,0.78736560246,"(1.7976931348623157e+308, 0.0, 0.0, 0.0, 1.7976931348623157e+308, 0.0, 0.0, 0.0, 0.05)",0.0,0.0,-0.00907571211037,"(1.7976931348623157e+308, 0.0, 0.0, 0.0, 1.7976931348623157e+308, 0.0, 0.0, 0.0, 0.05)",0.0,0.0,0.0,"(0.0, 0.0, 0.0, 0.0, 0.0, 0.0, 0.0, 0.0, 0.0)"
2019/10/07/19:24:00.012838,10035,1570443840,12448455,gyro_link,0.0,0.0,0.616348909921,0.787473187632,"(1.7976931348623157e+308, 0.0, 0.0, 0.0, 1.7976931348623157e+308, 0.0, 0.0, 0.0, 0.05)",0.0,0.0,-0.0193731546971,"(1.7976931348623157e+308, 0.0, 0.0, 0.0, 1.7976931348623157e+308, 0.0, 0.0, 0.0, 0.05)",0.0,0.0,0.0,"(0.0, 0.0, 0.0, 0.0, 0.0, 0.0, 0.0, 0.0, 0.0)"
2019/10/07/19:24:00.072800,10036,1570443840,72282320,gyro_link,0.0,0.0,0.616211460536,0.787580748815,"(1.7976931348623157e+308, 0.0, 0.0, 0.0, 1.7976931348623157e+308, 0.0, 0.0, 0.0, 0.05)",0.0,0.0,-0.00785398163397,"(1.7976931348623157e+308, 0.0, 0.0, 0.0, 1.7976931348623157e+308, 0.0, 0.0, 0.0, 0.05)",0.0,0.0,0.0,"(0.0, 0.0, 0.0, 0.0, 0.0, 0.0, 0.0, 0.0, 0.0)"
2019/10/07/19:24:00.130530,10037,1570443840,130123129,gyro_link,0.0,0.0,0.612148277021,0.790742996769,"(1.7976931348623157e+308, 0.0, 0.0, 0.0, 1.7976931348623157e+308, 0.0, 0.0, 0.0, 0.05)",0.0,0.0,-0.378038315982,"(1.7976931348623157e+308, 0.0, 0.0, 0.0, 1.7976931348623157e+308, 0.0, 0.0, 0.0, 0.05)",0.0,0.0,0.0,"(0.0, 0.0, 0.0, 0.0, 0.0, 0.0, 0.0, 0.0, 0.0)"
2019/10/07/19:24:00.152597,10038,1570443840,152026180,gyro_link,0.0,0.0,0.609245947374,0.792981321097,"(1.7976931348623157e+308, 0.0, 0.0, 0.0, 1.7976931348623157e+308, 0.0, 0.0, 0.0, 0.05)",0.0,0.0,-0.388684824419,"(1.7976931348623157e+308, 0.0, 0.0, 0.0, 1.7976931348623157e+308, 0.0, 0.0, 0.0, 0.05)",0.0,0.0,0.0,"(0.0, 0.0, 0.0, 0.0, 0.0, 0.0, 0.0, 0.0, 0.0)"
2019/10/07/19:24:00.212384,10039,1570443840,211984818,gyro_link,0.0,0.0,0.601815023152,0.798635510047,"(1.7976931348623157e+308, 0.0, 0.0, 0.0, 1.7976931348623157e+308, 0.0, 0.0, 0.0, 0.05)",0.0,0.0,-0.240506370925,"(1.7976931348623157e+308, 0.0, 0.0, 0.0, 1.7976931348623157e+308, 0.0, 0.0, 0.0, 0.05)",0.0,0.0,0.0,"(0.0, 0.0, 0.0, 0.0, 0.0, 0.0, 0.0, 0.0, 0.0)"
2019/10/07/19:24:00.272140,10040,1570443840,271758761,gyro_link,0.0,0.0,0.596855222381,0.802348953708,"(1.7976931348623157e+308, 0.0, 0.0, 0.0, 1.7976931348623157e+308, 0.0, 0.0, 0.0, 0.05)",0.0,0.0,-0.207345115137,"(1.7976931348623157e+308, 0.0, 0.0, 0.0, 1.7976931348623157e+308, 0.0, 0.0, 0.0, 0.05)",0.0,0.0,0.0,"(0.0, 0.0, 0.0, 0.0, 0.0, 0.0, 0.0, 0.0, 0.0)"
2019/10/07/19:24:00.331972,10041,1570443840,331540260,gyro_link,0.0,0.0,0.590042159163,0.807372435998,"(1.7976931348623157e+308, 0.0, 0.0, 0.0, 1.7976931348623157e+308, 0.0, 0.0, 0.0, 0.05)",0.0,0.0,-0.284139602225,"(1.7976931348623157e+308, 0.0, 0.0, 0.0, 1.7976931348623157e+308, 0.0, 0.0, 0.0, 0.05)",0.0,0.0,0.0,"(0.0, 0.0, 0.0, 0.0, 0.0, 0.0, 0.0, 0.0, 0.0)"
2019/10/07/19:24:00.392235,10042,1570443840,391666825,gyro_link,0.0,0.0,0.583541211356,0.812083526892,"(1.7976931348623157e+308, 0.0, 0.0, 0.0, 1.7976931348623157e+308, 0.0, 0.0, 0.0, 0.05)",0.0,0.0,-0.448549617763,"(1.7976931348623157e+308, 0.0, 0.0, 0.0, 1.7976931348623157e+308, 0.0, 0.0, 0.0, 0.05)",0.0,0.0,0.0,"(0.0, 0.0, 0.0, 0.0, 0.0, 0.0, 0.0, 0.0, 0.0)"
2019/10/07/19:24:00.451767,10043,1570443840,451361690,gyro_link,0.0,0.0,0.56719708019,0.823582098047,"(1.7976931348623157e+308, 0.0, 0.0, 0.0, 1.7976931348623157e+308, 0.0, 0.0, 0.0, 0.05)",0.0,0.0,-0.609468974796,"(1.7976931348623157e+308, 0.0, 0.0, 0.0, 1.7976931348623157e+308, 0.0, 0.0, 0.0, 0.05)",0.0,0.0,0.0,"(0.0, 0.0, 0.0, 0.0, 0.0, 0.0, 0.0, 0.0, 0.0)"
2019/10/07/19:24:00.511892,10044,1570443840,511425867,gyro_link,0.0,0.0,0.553391549243,0.83292124071,"(1.7976931348623157e+308, 0.0, 0.0, 0.0, 1.7976931348623157e+308, 0.0, 0.0, 0.0, 0.05)",0.0,0.0,-0.574387856831,"(1.7976931348623157e+308, 0.0, 0.0, 0.0, 1.7976931348623157e+308, 0.0, 0.0, 0.0, 0.05)",0.0,0.0,0.0,"(0.0, 0.0, 0.0, 0.0, 0.0, 0.0, 0.0, 0.0, 0.0)"
2019/10/07/19:24:00.571829,10045,1570443840,571432740,gyro_link,0.0,0.0,0.538550213024,0.842593417997,"(1.7976931348623157e+308, 0.0, 0.0, 0.0, 1.7976931348623157e+308, 0.0, 0.0, 0.0, 0.05)",0.0,0.0,-0.528311164579,"(1.7976931348623157e+308, 0.0, 0.0, 0.0, 1.7976931348623157e+308, 0.0, 0.0, 0.0, 0.05)",0.0,0.0,0.0,"(0.0, 0.0, 0.0, 0.0, 0.0, 0.0, 0.0, 0.0, 0.0)"
2019/10/07/19:24:00.631700,10046,1570443840,631372188,gyro_link,0.0,0.0,0.526807453214,0.849984651178,"(1.7976931348623157e+308, 0.0, 0.0, 0.0, 1.7976931348623157e+308, 0.0, 0.0, 0.0, 0.05)",0.0,0.0,-0.490262986885,"(1.7976931348623157e+308, 0.0, 0.0, 0.0, 1.7976931348623157e+308, 0.0, 0.0, 0.0, 0.05)",0.0,0.0,0.0,"(0.0, 0.0, 0.0, 0.0, 0.0, 0.0, 0.0, 0.0, 0.0)"
2019/10/07/19:24:00.691461,10047,1570443840,691241344,gyro_link,0.0,0.0,0.514140169175,0.85770617722,"(1.7976931348623157e+308, 0.0, 0.0, 0.0, 1.7976931348623157e+308, 0.0, 0.0, 0.0, 0.05)",0.0,0.0,-0.465653844432,"(1.7976931348623157e+308, 0.0, 0.0, 0.0, 1.7976931348623157e+308, 0.0, 0.0, 0.0, 0.05)",0.0,0.0,0.0,"(0.0, 0.0, 0.0, 0.0, 0.0, 0.0, 0.0, 0.0, 0.0)"
2019/10/07/19:24:00.751536,10048,1570443840,751047372,gyro_link,0.0,0.0,0.501510737159,0.86515142057,"(1.7976931348623157e+308, 0.0, 0.0, 0.0, 1.7976931348623157e+308, 0.0, 0.0, 0.0, 0.05)",0.0,0.0,-0.577878515335,"(1.7976931348623157e+308, 0.0, 0.0, 0.0, 1.7976931348623157e+308, 0.0, 0.0, 0.0, 0.05)",0.0,0.0,0.0,"(0.0, 0.0, 0.0, 0.0, 0.0, 0.0, 0.0, 0.0, 0.0)"
2019/10/07/19:24:00.811403,10049,1570443840,811009809,gyro_link,0.0,0.0,0.484885943368,0.874577396189,"(1.7976931348623157e+308, 0.0, 0.0, 0.0, 1.7976931348623157e+308, 0.0, 0.0, 0.0, 0.05)",0.0,0.0,-0.601964059013,"(1.7976931348623157e+308, 0.0, 0.0, 0.0, 1.7976931348623157e+308, 0.0, 0.0, 0.0, 0.05)",0.0,0.0,0.0,"(0.0, 0.0, 0.0, 0.0, 0.0, 0.0, 0.0, 0.0, 0.0)"
2019/10/07/19:24:00.870141,10050,1570443840,869692862,gyro_link,0.0,0.0,0.470703932165,0.882291226435,"(1.7976931348623157e+308, 0.0, 0.0, 0.0, 1.7976931348623157e+308, 0.0, 0.0, 0.0, 0.05)",0.0,0.0,-0.56426494717,"(1.7976931348623157e+308, 0.0, 0.0, 0.0, 1.7976931348623157e+308, 0.0, 0.0, 0.0, 0.05)",0.0,0.0,0.0,"(0.0, 0.0, 0.0, 0.0, 0.0, 0.0, 0.0, 0.0, 0.0)"
2019/10/07/19:24:00.891060,10051,1570443840,890742922,gyro_link,0.0,0.0,0.463914608979,0.885879921646,"(1.7976931348623157e+308, 0.0, 0.0, 0.0, 1.7976931348623157e+308, 0.0, 0.0, 0.0, 0.05)",0.0,0.0,-0.549255115603,"(1.7976931348623157e+308, 0.0, 0.0, 0.0, 1.7976931348623157e+308, 0.0, 0.0, 0.0, 0.05)",0.0,0.0,0.0,"(0.0, 0.0, 0.0, 0.0, 0.0, 0.0, 0.0, 0.0, 0.0)"
2019/10/07/19:24:00.949936,10052,1570443840,949566121,gyro_link,0.0,0.0,0.450955431779,0.892546468565,"(1.7976931348623157e+308, 0.0, 0.0, 0.0, 1.7976931348623157e+308, 0.0, 0.0, 0.0, 0.05)",0.0,0.0,-0.489913921035,"(1.7976931348623157e+308, 0.0, 0.0, 0.0, 1.7976931348623157e+308, 0.0, 0.0, 0.0, 0.05)",0.0,0.0,0.0,"(0.0, 0.0, 0.0, 0.0, 0.0, 0.0, 0.0, 0.0, 0.0)"
2019/10/07/19:24:01.007840,10053,1570443841,7474618,gyro_link,0.0,0.0,0.437508164602,0.899214438222,"(1.7976931348623157e+308, 0.0, 0.0, 0.0, 1.7976931348623157e+308, 0.0, 0.0, 0.0, 0.05)",0.0,0.0,-0.477173017495,"(1.7976931348623157e+308, 0.0, 0.0, 0.0, 1.7976931348623157e+308, 0.0, 0.0, 0.0, 0.05)",0.0,0.0,0.0,"(0.0, 0.0, 0.0, 0.0, 0.0, 0.0, 0.0, 0.0, 0.0)"
2019/10/07/19:24:01.030906,10054,1570443841,30532532,gyro_link,0.0,0.0,0.433344522957,0.901228341999,"(1.7976931348623157e+308, 0.0, 0.0, 0.0, 1.7976931348623157e+308, 0.0, 0.0, 0.0, 0.05)",0.0,0.0,-0.513475865937,"(1.7976931348623157e+308, 0.0, 0.0, 0.0, 1.7976931348623157e+308, 0.0, 0.0, 0.0, 0.05)",0.0,0.0,0.0,"(0.0, 0.0, 0.0, 0.0, 0.0, 0.0, 0.0, 0.0, 0.0)"
2019/10/07/19:24:01.089857,10055,1570443841,89474538,gyro_link,0.0,0.0,0.418976713794,0.907996978683,"(1.7976931348623157e+308, 0.0, 0.0, 0.0, 1.7976931348623157e+308, 0.0, 0.0, 0.0, 0.05)",0.0,0.0,-0.605454717517,"(1.7976931348623157e+308, 0.0, 0.0, 0.0, 1.7976931348623157e+308, 0.0, 0.0, 0.0, 0.05)",0.0,0.0,0.0,"(0.0, 0.0, 0.0, 0.0, 0.0, 0.0, 0.0, 0.0, 0.0)"
2019/10/07/19:24:01.148143,10056,1570443841,147716947,gyro_link,0.0,0.0,0.401708042978,0.915767791641,"(1.7976931348623157e+308, 0.0, 0.0, 0.0, 1.7976931348623157e+308, 0.0, 0.0, 0.0, 0.05)",0.0,0.0,-0.564090414245,"(1.7976931348623157e+308, 0.0, 0.0, 0.0, 1.7976931348623157e+308, 0.0, 0.0, 0.0, 0.05)",0.0,0.0,0.0,"(0.0, 0.0, 0.0, 0.0, 0.0, 0.0, 0.0, 0.0, 0.0)"
