,row_id,series_id,measurement_number,orientation_X,orientation_Y,orientation_Z,orientation_W,angular_velocity_X,angular_velocity_Y,angular_velocity_Z,linear_acceleration_X,linear_acceleration_Y,linear_acceleration_Z
0,0_0,0,0,0.0,0.0,0.487935834103,0.872879500159,0.0,0.0,0.0,0.0,0.0,0.0
1,0_1,0,1,0.0,0.0,0.487935834103,0.872879500159,0.0,0.0,0.0,0.0,0.0,0.0
2,0_2,0,2,0.0,0.0,0.487935834103,0.872879500159,0.0,0.0,0.0,0.0,0.0,0.0
3,0_3,0,3,0.0,0.0,0.487935834103,0.872879500159,0.0,0.0,0.0,0.0,0.0,0.0
4,0_4,0,4,0.0,0.0,0.487935834103,0.872879500159,0.0,0.0,0.0,0.0,0.0,0.0
5,0_5,0,5,0.0,0.0,0.487935834103,0.872879500159,0.0,0.0,0.0,0.0,0.0,0.0
6,0_6,0,6,0.0,0.0,0.487935834103,0.872879500159,0.0,0.0,0.0,0.0,0.0,0.0
7,0_7,0,7,0.0,0.0,0.487935834103,0.872879500159,0.0,0.0,0.0,0.0,0.0,0.0
8,0_8,0,8,0.0,0.0,0.487935834103,0.872879500159,0.0,0.0,0.0,0.0,0.0,0.0
9,0_9,0,9,0.0,0.0,0.487935834103,0.872879500159,0.0,0.0,0.0,0.0,0.0,0.0
10,0_10,0,10,0.0,0.0,0.487935834103,0.872879500159,0.0,0.0,0.0,0.0,0.0,0.0
11,0_11,0,11,0.0,0.0,0.487935834103,0.872879500159,0.0,0.0,0.0,0.0,0.0,0.0
12,0_12,0,12,0.0,0.0,0.487935834103,0.872879500159,0.0,0.0,0.0,0.0,0.0,0.0
13,0_13,0,13,0.0,0.0,0.487935834103,0.872879500159,0.0,0.0,0.0,0.0,0.0,0.0
14,0_14,0,14,0.0,0.0,0.487935834103,0.872879500159,0.0,0.0,0.0,0.0,0.0,0.0
15,0_15,0,15,0.0,0.0,0.487935834103,0.872879500159,0.0,0.0,0.0,0.0,0.0,0.0
16,0_16,0,16,0.0,0.0,0.487935834103,0.872879500159,0.0,0.0,0.0,0.0,0.0,0.0
17,0_17,0,17,0.0,0.0,0.487935834103,0.872879500159,0.0,0.0,0.0,0.0,0.0,0.0
18,0_18,0,18,0.0,0.0,0.487935834103,0.872879500159,0.0,0.0,0.0,0.0,0.0,0.0
19,0_19,0,19,0.0,0.0,0.487935834103,0.872879500159,0.0,0.0,0.0,0.0,0.0,0.0
20,0_20,0,20,0.0,0.0,0.487935834103,0.872879500159,0.0,0.0,0.0,0.0,0.0,0.0
21,0_21,0,21,0.0,0.0,0.487935834103,0.872879500159,0.0,0.0,0.0,0.0,0.0,0.0
22,0_22,0,22,0.0,0.0,0.487935834103,0.872879500159,0.0,0.0,0.0013962634016,0.0,0.0,0.0
23,0_23,0,23,0.0,0.0,0.487935834103,0.872879500159,0.0,0.0,0.0005235987755980001,0.0,0.0,0.0
24,0_24,0,24,0.0,0.0,0.487935834103,0.872879500159,0.0,0.0,0.0,0.0,0.0,0.0
25,0_25,0,25,0.0,0.0,0.487935834103,0.872879500159,0.0,0.0,-0.00174532925199,0.0,0.0,0.0
26,0_26,0,26,0.0,0.0,0.488012005351,0.872836916401,0.0,0.0,0.0240855436775,0.0,0.0,0.0
27,0_27,0,27,0.0,0.0,0.48816433669799997,0.872751728945,0.0,0.0,0.014311699866400001,0.0,0.0,0.0
28,0_28,0,28,0.0,0.0,0.488316653174,0.872666514903,0.0,0.0,0.00837758040957,0.0,0.0,0.0
29,0_29,0,29,0.0,0.0,0.488392805834,0.872623897913,0.0,0.0,0.00244346095279,0.0,0.0,0.0
30,0_30,0,30,0.0,0.0,0.488012005351,0.872836916401,0.0,0.0,-0.0185004900711,0.0,0.0,0.0
31,0_31,0,31,0.0,0.0,0.48740253135399997,0.87317740032,0.0,0.0,-0.006632251157579999,0.0,0.0,0.0
32,0_32,0,32,0.0,0.0,0.48740253135399997,0.87317740032,0.0,0.0,0.0012217304764,0.0,0.0,0.0
33,0_33,0,33,0.0,0.0,0.487707298065,0.873007211547,0.0,0.0,0.008028514559169999,0.0,0.0,0.0
34,0_34,0,34,0.0,0.0,0.488012005351,0.872836916401,0.0,0.0,0.00628318530718,0.0,0.0,0.0
35,0_35,0,35,0.0,0.0,0.487935834103,0.872879500159,0.0,0.0,-0.00750491578358,0.0,0.0,0.0
36,0_36,0,36,0.0,0.0,0.487326330395,0.87321993089,0.0,0.0,-0.022863813201099998,0.0,0.0,0.0
37,0_37,0,37,0.0,0.0,0.487326330395,0.87321993089,0.0,0.0,0.008028514559169999,0.0,0.0,0.0
38,0_38,0,38,0.0,0.0,0.487783480459,0.8729646477330001,0.0,0.0,0.013788101090799998,0.0,0.0,0.0
39,0_39,0,39,0.0,0.0,0.487935834103,0.872879500159,0.0,0.0,0.00733038285838,0.0,0.0,0.0
40,0_40,0,40,0.0,0.0,0.487783480459,0.8729646477330001,0.0,0.0,-0.0160570291183,0.0,0.0,0.0
41,0_41,0,41,0.0,0.0,0.487478728601,0.8731348631010001,0.0,0.0,-0.0158824961931,0.0,0.0,0.0
42,0_42,0,42,0.0,0.0,0.487250125725,0.8732624548100001,0.0,0.0,-0.026354471705099997,0.0,0.0,0.0
43,0_43,0,43,0.0,0.0,0.48686904672799997,0.873474974649,0.0,0.0,-0.00820304748437,0.0,0.0,0.0
44,0_44,0,44,0.0,0.0,0.487173917345,0.8733049720799999,0.0,0.0,0.0193731546971,0.0,0.0,0.0
45,0_45,0,45,0.0,0.0,0.487326330395,0.87321993089,0.0,0.0,0.0125663706144,0.0,0.0,0.0
46,0_46,0,46,0.0,0.0,0.487631111957,0.873049768714,0.0,0.0,0.009250245035569999,0.0,0.0,0.0
47,0_47,0,47,0.0,0.0,0.487631111957,0.873049768714,0.0,0.0,-0.005410520681180001,0.0,0.0,0.0
48,0_48,0,48,0.0,0.0,0.48755492213600005,0.8730923192319999,0.0,0.0,-0.0157079632679,0.0,0.0,0.0
49,0_49,0,49,0.0,0.0,0.486945269945,0.873432483984,0.0,0.0,-0.0144862327916,0.0,0.0,0.0
50,0_50,0,50,0.0,0.0,0.486945269945,0.873432483984,0.0,0.0,0.0216420827247,0.0,0.0,0.0
51,0_51,0,51,0.0,0.0,0.487478728601,0.8731348631010001,0.0,0.0,0.007679448708779999,0.0,0.0,0.0
52,0_52,0,52,0.0,0.0,0.487478728601,0.8731348631010001,0.0,0.0,0.00366519142919,0.0,0.0,0.0
53,0_53,0,53,0.0,0.0,0.48755492213600005,0.8730923192319999,0.0,0.0,0.000698131700798,0.0,0.0,0.0
54,0_54,0,54,0.0,0.0,0.487097705254,0.873347482699,0.0,0.0,-0.017453292519900004,0.0,0.0,0.0
55,0_55,0,55,0.0,0.0,0.48671658917099997,0.8735599360240001,0.0,0.0,-0.00593411945678,0.0,0.0,0.0
56,0_56,0,56,0.0,0.0,0.487173917345,0.8733049720799999,0.0,0.0,0.0219911485751,0.0,0.0,0.0
57,0_57,0,57,0.0,0.0,0.487478728601,0.8731348631010001,0.0,0.0,-0.00261799387799,0.0,0.0,0.0
58,0_58,0,58,0.0,0.0,0.487250125725,0.8732624548100001,0.0,0.0,-0.0144862327916,0.0,0.0,0.0
59,0_59,0,59,0.0,0.0,0.48671658917099997,0.8735599360240001,0.0,0.0,-0.0165806278939,0.0,0.0,0.0
60,0_60,0,60,0.0,0.0,0.48671658917099997,0.8735599360240001,0.0,0.0,0.0150098315672,0.0,0.0,0.0
61,0_61,0,61,0.0,0.0,0.487173917345,0.8733049720799999,0.0,0.0,0.0167551608191,0.0,0.0,0.0
62,0_62,0,62,0.0,0.0,0.487250125725,0.8732624548100001,0.0,0.0,-0.00296705972839,0.0,0.0,0.0
63,0_63,0,63,0.0,0.0,0.486945269945,0.873432483984,0.0,0.0,-0.0171042266695,0.0,0.0,0.0
64,0_64,0,64,0.0,0.0,0.486411629583,0.8737297789399999,0.0,0.0,-0.0202458193231,0.0,0.0,0.0
65,0_65,0,65,0.0,0.0,0.486259127561,0.8738146604770001,0.0,0.0,-0.00994837673637,0.0,0.0,0.0
66,0_66,0,66,0.0,0.0,0.486564116787,0.8736448707879999,0.0,0.0,0.0171042266695,0.0,0.0,0.0
67,0_67,0,67,0.0,0.0,0.487097705254,0.873347482699,0.0,0.0,0.009250245035569999,0.0,0.0,0.0
68,0_68,0,68,0.0,0.0,0.487097705254,0.873347482699,0.0,0.0,0.0010471975512,0.0,0.0,0.0
69,0_69,0,69,0.0,0.0,0.486945269945,0.873432483984,0.0,0.0,-0.006632251157579999,0.0,0.0,0.0
70,0_70,0,70,0.0,0.0,0.48648787503700003,0.873687328191,0.0,0.0,-0.0205948851735,0.0,0.0,0.0
71,0_71,0,71,0.0,0.0,0.486411629583,0.8737297789399999,0.0,0.0,-0.008028514559169999,0.0,0.0,0.0
72,0_72,0,72,0.0,0.0,0.48679281980300004,0.873517458663,0.0,0.0,0.0216420827247,0.0,0.0,0.0
73,0_73,0,73,0.0,0.0,0.487021489454,0.8733899866670001,0.0,0.0,-0.009250245035569999,0.0,0.0,0.0
74,0_74,0,74,0.0,0.0,0.48648787503700003,0.873687328191,0.0,0.0,-0.0232128790515,0.0,0.0,0.0
75,0_75,0,75,0.0,0.0,0.485954079085,0.8739843436929999,0.0,0.0,-0.0150098315672,0.0,0.0,0.0
76,0_76,0,76,0.0,0.0,0.486106610727,0.873899515395,0.0,0.0,0.0176278254451,0.0,0.0,0.0
77,0_77,0,77,0.0,0.0,0.486335380423,0.873772223035,0.0,0.0,0.020943951023900002,0.0,0.0,0.0
78,0_78,0,78,0.0,0.0,0.48648787503700003,0.873687328191,0.0,0.0,0.0,0.0,0.0,0.0
79,0_79,0,79,0.0,0.0,0.486335380423,0.873772223035,0.0,0.0,-0.0158824961931,0.0,0.0,0.0
80,0_80,0,80,0.0,0.0,0.486030346756,0.8739419328720001,0.0,0.0,-0.00872664625997,0.0,0.0,0.0
81,0_81,0,81,0.0,0.0,0.486182870995,0.873857091263,0.0,0.0,0.0179768912955,0.0,0.0,0.0
82,0_82,0,82,0.0,0.0,0.48648787503700003,0.873687328191,0.0,0.0,0.006632251157579999,0.0,0.0,0.0
83,0_83,0,83,0.0,0.0,0.48648787503700003,0.873687328191,0.0,0.0,-0.00418879020479,0.0,0.0,0.0
84,0_84,0,84,0.0,0.0,0.486182870995,0.873857091263,0.0,0.0,-0.013089969390000001,0.0,0.0,0.0
85,0_85,0,85,0.0,0.0,0.485725253868,0.8741115362209999,0.0,0.0,-0.00558505360638,0.0,0.0,0.0
86,0_86,0,86,0.0,0.0,0.485725253868,0.8741115362209999,0.0,0.0,-0.0033161255787899995,0.0,0.0,0.0
87,0_87,0,87,0.0,0.0,0.485954079085,0.8739843436929999,0.0,0.0,0.0193731546971,0.0,0.0,0.0
88,0_88,0,88,0.0,0.0,0.486182870995,0.873857091263,0.0,0.0,-0.00872664625997,0.0,0.0,0.0
89,0_89,0,89,0.0,0.0,0.486030346756,0.8739419328720001,0.0,0.0,-0.0144862327916,0.0,0.0,0.0
90,0_90,0,90,0.0,0.0,0.48564897139700003,0.874153920417,0.0,0.0,-0.0197222205475,0.0,0.0,0.0
91,0_91,0,91,0.0,0.0,0.485420101795,0.874281033063,0.0,0.0,-0.009599310885969999,0.0,0.0,0.0
92,0_92,0,92,0.0,0.0,0.485725253868,0.8741115362209999,0.0,0.0,0.0188495559215,0.0,0.0,0.0
93,0_93,0,93,0.0,0.0,0.485877807712,0.8740267478589999,0.0,0.0,0.0207694180987,0.0,0.0,0.0
94,0_94,0,94,0.0,0.0,0.486030346756,0.8739419328720001,0.0,0.0,-0.013962634016,0.0,0.0,0.0
95,0_95,0,95,0.0,0.0,0.485954079085,0.8739843436929999,0.0,0.0,-0.0164060949687,0.0,0.0,0.0
96,0_96,0,96,0.0,0.0,0.48564897139700003,0.874153920417,0.0,0.0,-0.0150098315672,0.0,0.0,0.0
97,0_97,0,97,0.0,0.0,0.485420101795,0.874281033063,0.0,0.0,-0.000174532925199,0.0,0.0,0.0
98,0_98,0,98,0.0,0.0,0.48549639536000005,0.874238668839,0.0,0.0,0.013962634016,0.0,0.0,0.0
99,0_99,0,99,0.0,0.0,0.485954079085,0.8739843436929999,0.0,0.0,0.011344640138,0.0,0.0,0.0
100,0_100,0,100,0.0,0.0,0.485725253868,0.8741115362209999,0.0,0.0,-0.022340214425499997,0.0,0.0,0.0
101,0_101,0,101,0.0,0.0,0.485267503577,0.8743657415360001,0.0,0.0,-0.008028514559169999,0.0,0.0,0.0
102,0_102,0,102,0.0,0.0,0.485191198924,0.874408085786,0.0,0.0,-0.00366519142919,0.0,0.0,0.0
103,0_103,0,103,0.0,0.0,0.485572685227,0.8741962979569999,0.0,0.0,0.024783675378299997,0.0,0.0,0.0
104,0_104,0,104,0.0,0.0,0.48580153264,0.874069145368,0.0,0.0,-0.004014257279590001,0.0,0.0,0.0
105,0_105,0,105,0.0,0.0,0.485725253868,0.8741115362209999,0.0,0.0,-0.010646508437200001,0.0,0.0,0.0
106,0_106,0,106,0.0,0.0,0.485420101795,0.874281033063,0.0,0.0,-0.0254818070791,0.0,0.0,0.0
107,0_107,0,107,0.0,0.0,0.48496226279700005,0.8745350785770001,0.0,0.0,-0.010821041362399999,0.0,0.0,0.0
108,0_108,0,108,0.0,0.0,0.485191198924,0.874408085786,0.0,0.0,0.0204203522483,0.0,0.0,0.0
109,0_109,0,109,0.0,0.0,0.48549639536000005,0.874238668839,0.0,0.0,0.0020943951023900003,0.0,0.0,0.0
110,0_110,0,110,0.0,0.0,0.485267503577,0.8743657415360001,0.0,0.0,-0.0127409035396,0.0,0.0,0.0
111,0_111,0,111,0.0,0.0,0.485038578533,0.874492754306,0.0,0.0,-0.0157079632679,0.0,0.0,0.0
112,0_112,0,112,0.0,0.0,0.484809620246,0.874619707139,0.0,0.0,0.0019198621771900001,0.0,0.0,0.0
113,0_113,0,113,0.0,0.0,0.485191198924,0.874408085786,0.0,0.0,0.0216420827247,0.0,0.0,0.0
114,0_114,0,114,0.0,0.0,0.485343804534,0.8743233906290001,0.0,0.0,0.0188495559215,0.0,0.0,0.0
115,0_115,0,115,0.0,0.0,0.485267503577,0.8743657415360001,0.0,0.0,-0.015533430342700001,0.0,0.0,0.0
116,0_116,0,116,0.0,0.0,0.484733293432,0.8746620114299999,0.0,0.0,-0.0230383461263,0.0,0.0,0.0
117,0_117,0,117,0.0,0.0,0.484580628731,0.874746600027,0.0,0.0,-0.013788101090799998,0.0,0.0,0.0
118,0_118,0,118,0.0,0.0,0.484733293432,0.8746620114299999,0.0,0.0,0.0151843644924,0.0,0.0,0.0
119,0_119,0,119,0.0,0.0,0.484885943368,0.874577396189,0.0,0.0,0.0132645023152,0.0,0.0,0.0
120,0_120,0,120,0.0,0.0,0.48496226279700005,0.8745350785770001,0.0,0.0,-0.014835298642,0.0,0.0,0.0
121,0_121,0,121,0.0,0.0,0.484809620246,0.874619707139,0.0,0.0,-0.0207694180987,0.0,0.0,0.0
122,0_122,0,122,0.0,0.0,0.484427949268,0.8748311619779999,0.0,0.0,-0.00558505360638,0.0,0.0,0.0
123,0_123,0,123,0.0,0.0,0.48435160400300004,0.8748734329600001,0.0,0.0,0.0,0.0,0.0,0.0
124,0_124,0,124,0.0,0.0,0.484580628731,0.874746600027,0.0,0.0,0.011344640138,0.0,0.0,0.0
125,0_125,0,125,0.0,0.0,0.484885943368,0.874577396189,0.0,0.0,0.0,0.0,0.0,0.0
126,0_126,0,126,0.0,0.0,0.484656962927,0.874704309059,0.0,0.0,-0.0134390352404,0.0,0.0,0.0
127,0_127,0,127,0.0,0.0,0.484275255049,0.8749156972799998,0.0,0.0,-0.00593411945678,0.0,0.0,0.0
128,0_128,0,128,0.0,0.0,0.484504290844,0.8747888843330001,0.0,0.0,0.0150098315672,0.0,0.0,0.0
129,1_0,1,0,0.0,0.0,0.484656962927,0.874704309059,0.0,0.0,-0.00279252680319,0.0,0.0,0.0
130,1_1,1,1,0.0,0.0,0.48435160400300004,0.8748734329600001,0.0,0.0,-0.0038397243543899996,0.0,0.0,0.0
131,1_2,1,2,0.0,0.0,0.48435160400300004,0.8748734329600001,0.0,0.0,0.000174532925199,0.0,0.0,0.0
132,1_3,1,3,0.0,0.0,0.484427949268,0.8748311619779999,0.0,0.0,0.00558505360638,0.0,0.0,0.0
133,1_4,1,4,0.0,0.0,0.484427949268,0.8748311619779999,0.0,0.0,-0.00628318530718,0.0,0.0,0.0
134,1_5,1,5,0.0,0.0,0.483740709141,0.8752113609409999,0.0,0.0,-0.0144862327916,0.0,0.0,0.0
135,1_6,1,6,0.0,0.0,0.483893454972,0.8751269189299999,0.0,0.0,0.0198967534727,0.0,0.0,0.0
136,1_7,1,7,0.0,0.0,0.484275255049,0.8749156972799998,0.0,0.0,-0.00157079632679,0.0,0.0,0.0
137,1_8,1,8,0.0,0.0,0.484122546078,0.8750002059309999,0.0,0.0,-0.0167551608191,0.0,0.0,0.0
138,1_9,1,9,0.0,0.0,0.483893454972,0.8751269189299999,0.0,0.0,-0.00558505360638,0.0,0.0,0.0
139,1_10,1,10,0.0,0.0,0.48381708389899997,0.875169143268,0.0,0.0,-0.0012217304764,0.0,0.0,0.0
140,1_11,1,11,0.0,0.0,0.48396982236,0.875084687928,0.0,0.0,0.007679448708779999,0.0,0.0,0.0
141,1_12,1,12,0.0,0.0,0.48396982236,0.875084687928,0.0,0.0,-0.0102974425868,0.0,0.0,0.0
142,1_13,1,13,0.0,0.0,0.483893454972,0.8751269189299999,0.0,0.0,-0.0101229096616,0.0,0.0,0.0
143,1_14,1,14,0.0,0.0,0.48381708389899997,0.875169143268,0.0,0.0,-0.0101229096616,0.0,0.0,0.0
144,1_15,1,15,0.0,0.0,0.48358794857500004,0.875295776291,0.0,0.0,0.0,0.0,0.0,0.0
145,1_16,1,16,0.0,0.0,0.483740709141,0.8752113609409999,0.0,0.0,0.017278759594700002,0.0,0.0,0.0
146,1_17,1,17,0.0,0.0,0.48396982236,0.875084687928,0.0,0.0,-0.00244346095279,0.0,0.0,0.0
147,1_18,1,18,0.0,0.0,0.483740709141,0.8752113609409999,0.0,0.0,-0.0158824961931,0.0,0.0,0.0
148,1_19,1,19,0.0,0.0,0.4836643307,0.8752535719490001,0.0,0.0,0.007679448708779999,0.0,0.0,0.0
149,1_20,1,20,0.0,0.0,0.48396982236,0.875084687928,0.0,0.0,0.00174532925199,0.0,0.0,0.0
150,1_21,1,21,0.0,0.0,0.483740709141,0.8752113609409999,0.0,0.0,-0.0164060949687,0.0,0.0,0.0
151,1_22,1,22,0.0,0.0,0.483358780107,0.875422349323,0.0,0.0,-0.0012217304764,0.0,0.0,0.0
152,1_23,1,23,0.0,0.0,0.48358794857500004,0.875295776291,0.0,0.0,0.0176278254451,0.0,0.0,0.0
153,1_24,1,24,0.0,0.0,0.48381708389899997,0.875169143268,0.0,0.0,-0.00733038285838,0.0,0.0,0.0
154,1_25,1,25,0.0,0.0,0.4836643307,0.8752535719490001,0.0,0.0,-0.012042771838799999,0.0,0.0,0.0
155,1_26,1,26,0.0,0.0,0.483511562768,0.875337973968,0.0,0.0,0.00488692190558,0.0,0.0,0.0
156,1_27,1,27,0.0,0.0,0.48358794857500004,0.875295776291,0.0,0.0,0.007853981633970001,0.0,0.0,0.0
157,1_28,1,28,0.0,0.0,0.483893454972,0.8751269189299999,0.0,0.0,-0.000698131700798,0.0,0.0,0.0
158,1_29,1,29,0.0,0.0,0.48381708389899997,0.875169143268,0.0,0.0,-0.00523598775598,0.0,0.0,0.0
159,1_30,1,30,0.0,0.0,0.483435173278,0.875380164978,0.0,0.0,-0.0254818070791,0.0,0.0,0.0
160,1_31,1,31,0.0,0.0,0.48328238325499995,0.875464527,0.0,0.0,-0.0162315620435,0.0,0.0,0.0
161,1_32,1,32,0.0,0.0,0.483511562768,0.875337973968,0.0,0.0,0.0205948851735,0.0,0.0,0.0
162,1_33,1,33,0.0,0.0,0.4836643307,0.8752535719490001,0.0,0.0,0.013788101090799998,0.0,0.0,0.0
163,1_34,1,34,0.0,0.0,0.48381708389899997,0.875169143268,0.0,0.0,-0.000872664625997,0.0,0.0,0.0
164,1_35,1,35,0.0,0.0,0.483511562768,0.875337973968,0.0,0.0,-0.014660765716799999,0.0,0.0,0.0
165,1_36,1,36,0.0,0.0,0.483435173278,0.875380164978,0.0,0.0,-0.00715584993318,0.0,0.0,0.0
166,1_37,1,37,0.0,0.0,0.483511562768,0.875337973968,0.0,0.0,0.00279252680319,0.0,0.0,0.0
167,1_38,1,38,0.0,0.0,0.48358794857500004,0.875295776291,0.0,0.0,-0.00296705972839,0.0,0.0,0.0
168,1_39,1,39,0.0,0.0,0.4836643307,0.8752535719490001,0.0,0.0,0.00279252680319,0.0,0.0,0.0
169,1_40,1,40,0.0,0.0,0.483358780107,0.875422349323,0.0,0.0,-0.00314159265359,0.0,0.0,0.0
170,1_41,1,41,0.0,0.0,0.483358780107,0.875422349323,0.0,0.0,-0.00837758040957,0.0,0.0,0.0
171,1_42,1,42,0.0,0.0,0.483511562768,0.875337973968,0.0,0.0,0.00942477796077,0.0,0.0,0.0
172,1_43,1,43,0.0,0.0,0.48328238325499995,0.875464527,0.0,0.0,-0.0171042266695,0.0,0.0,0.0
173,1_44,1,44,0.0,0.0,0.48320598272200005,0.87550669801,0.0,0.0,-0.0050614548307799994,0.0,0.0,0.0
174,1_45,1,45,0.0,0.0,0.48328238325499995,0.875464527,0.0,0.0,0.007679448708779999,0.0,0.0,0.0
175,1_46,1,46,0.0,0.0,0.48320598272200005,0.87550669801,0.0,0.0,-0.0157079632679,0.0,0.0,0.0
176,1_47,1,47,0.0,0.0,0.48274750227200003,0.8757595840469999,0.0,0.0,-0.0005235987755980001,0.0,0.0,0.0
177,1_48,1,48,0.0,0.0,0.48282392487400005,0.875717453046,0.0,0.0,0.00715584993318,0.0,0.0,0.0
178,1_49,1,49,0.0,0.0,0.48312957851000005,0.8755488623540001,0.0,0.0,0.015358897417600001,0.0,0.0,0.0
179,1_50,1,50,0.0,0.0,0.483358780107,0.875422349323,0.0,0.0,0.0005235987755980001,0.0,0.0,0.0
180,1_51,1,51,0.0,0.0,0.48297675904799997,0.8756331710359999,0.0,0.0,-0.008028514559169999,0.0,0.0,0.0
181,1_52,1,52,0.0,0.0,0.48320598272200005,0.87550669801,0.0,0.0,0.0111701072128,0.0,0.0,0.0
182,1_53,1,53,0.0,0.0,0.48320598272200005,0.87550669801,0.0,0.0,0.000698131700798,0.0,0.0,0.0
183,1_54,1,54,0.0,0.0,0.483358780107,0.875422349323,0.0,0.0,-0.000174532925199,0.0,0.0,0.0
184,1_55,1,55,0.0,0.0,0.48328238325499995,0.875464527,0.0,0.0,-0.0115191730632,0.0,0.0,0.0
185,1_56,1,56,0.0,0.0,0.48274750227200003,0.8757595840469999,0.0,0.0,-0.00453785605519,0.0,0.0,0.0
186,1_57,1,57,0.0,0.0,0.48274750227200003,0.8757595840469999,0.0,0.0,0.000872664625997,0.0,0.0,0.0
187,1_58,1,58,0.0,0.0,0.4829003438,0.875675315375,0.0,0.0,0.00488692190558,0.0,0.0,0.0
188,1_59,1,59,0.0,0.0,0.4829003438,0.875675315375,0.0,0.0,-0.00558505360638,0.0,0.0,0.0
189,1_60,1,60,0.0,0.0,0.48267107599200004,0.875801708379,0.0,0.0,0.007853981633970001,0.0,0.0,0.0
190,1_61,1,61,0.0,0.0,0.48282392487400005,0.875717453046,0.0,0.0,0.007853981633970001,0.0,0.0,0.0
191,1_62,1,62,0.0,0.0,0.48282392487400005,0.875717453046,0.0,0.0,-0.00820304748437,0.0,0.0,0.0
192,1_63,1,63,0.0,0.0,0.482441775103,0.875928041357,0.0,0.0,-0.0165806278939,0.0,0.0,0.0
193,1_64,1,64,0.0,0.0,0.482518212408,0.8758859370350001,0.0,0.0,-0.000174532925199,0.0,0.0,0.0
194,1_65,1,65,0.0,0.0,0.482594646038,0.8758438260420001,0.0,0.0,0.00628318530718,0.0,0.0,0.0
195,1_66,1,66,0.0,0.0,0.482518212408,0.8758859370350001,0.0,0.0,-0.0134390352404,0.0,0.0,0.0
196,1_67,1,67,0.0,0.0,0.482365334125,0.8759701390090001,0.0,0.0,0.000174532925199,0.0,0.0,0.0
197,1_68,1,68,0.0,0.0,0.482288889473,0.87601222999,0.0,0.0,-0.00244346095279,0.0,0.0,0.0
198,1_69,1,69,0.0,0.0,0.482365334125,0.8759701390090001,0.0,0.0,0.00872664625997,0.0,0.0,0.0
199,1_70,1,70,0.0,0.0,0.482441775103,0.875928041357,0.0,0.0,-0.00837758040957,0.0,0.0,0.0
200,1_71,1,71,0.0,0.0,0.482288889473,0.87601222999,0.0,0.0,0.005410520681180001,0.0,0.0,0.0
201,1_72,1,72,0.0,0.0,0.482365334125,0.8759701390090001,0.0,0.0,0.00628318530718,0.0,0.0,0.0
202,1_73,1,73,0.0,0.0,0.482365334125,0.8759701390090001,0.0,0.0,-0.000698131700798,0.0,0.0,0.0
203,1_74,1,74,0.0,0.0,0.482441775103,0.875928041357,0.0,0.0,0.00680678408278,0.0,0.0,0.0
204,1_75,1,75,0.0,0.0,0.48205953348200004,0.876138462904,0.0,0.0,-0.026529004630299998,0.0,0.0,0.0
205,1_76,1,76,0.0,0.0,0.481983074142,0.876180527198,0.0,0.0,-0.0050614548307799994,0.0,0.0,0.0
206,1_77,1,77,0.0,0.0,0.48213598915100003,0.876096391937,0.0,0.0,-0.0033161255787899995,0.0,0.0,0.0
207,1_78,1,78,0.0,0.0,0.48213598915100003,0.876096391937,0.0,0.0,0.00157079632679,0.0,0.0,0.0
208,1_79,1,79,0.0,0.0,0.482212441148,0.876054314299,0.0,0.0,-0.0109955742876,0.0,0.0,0.0
209,1_80,1,80,0.0,0.0,0.481753674102,0.876306680044,0.0,0.0,-0.00471238898038,0.0,0.0,0.0
210,1_81,1,81,0.0,0.0,0.481906611132,0.8762225848190001,0.0,0.0,-0.00558505360638,0.0,0.0,0.0
211,1_82,1,82,0.0,0.0,0.481983074142,0.876180527198,0.0,0.0,0.009250245035569999,0.0,0.0,0.0
212,1_83,1,83,0.0,0.0,0.48160072239699997,0.876390748574,0.0,0.0,-0.00994837673637,0.0,0.0,0.0
213,1_84,1,84,0.0,0.0,0.481983074142,0.876180527198,0.0,0.0,0.0162315620435,0.0,0.0,0.0
214,1_85,1,85,0.0,0.0,0.48183014445100003,0.8762646357680001,0.0,0.0,-0.00244346095279,0.0,0.0,0.0
215,1_86,1,86,0.0,0.0,0.48167720008299997,0.876348717646,0.0,0.0,-0.0202458193231,0.0,0.0,0.0
216,1_87,1,87,0.0,0.0,0.481753674102,0.876306680044,0.0,0.0,0.0256563400043,0.0,0.0,0.0
217,1_88,1,88,0.0,0.0,0.48183014445100003,0.8762646357680001,0.0,0.0,-0.009599310885969999,0.0,0.0,0.0
218,1_89,1,89,0.0,0.0,0.48160072239699997,0.876390748574,0.0,0.0,-0.0214675497995,0.0,0.0,0.0
219,1_90,1,90,0.0,0.0,0.48129477498,0.876558805544,0.0,0.0,0.0115191730632,0.0,0.0,0.0
220,1_91,1,91,0.0,0.0,0.481447756021,0.8764747904090001,0.0,0.0,-0.00820304748437,0.0,0.0,0.0
221,1_92,1,92,0.0,0.0,0.48137126733400004,0.876516801314,0.0,0.0,-0.00820304748437,0.0,0.0,0.0
222,1_93,1,93,0.0,0.0,0.48098876891900005,0.8767267557080001,0.0,0.0,-0.020071286397900002,0.0,0.0,0.0
223,1_94,1,94,0.0,0.0,0.480759225911,0.8768526482260001,0.0,0.0,0.0171042266695,0.0,0.0,0.0
224,1_95,1,95,0.0,0.0,0.480912258245,0.876768726558,0.0,0.0,0.0204203522483,0.0,0.0,0.0
225,1_96,1,96,0.0,0.0,0.48098876891900005,0.8767267557080001,0.0,0.0,-0.007679448708779999,0.0,0.0,0.0
226,1_97,1,97,0.0,0.0,0.480682704252,0.8768945990449999,0.0,0.0,-0.0198967534727,0.0,0.0,0.0
227,1_98,1,98,0.0,0.0,0.480453117312,0.8770204114299999,0.0,0.0,-0.022863813201099998,0.0,0.0,0.0
228,1_99,1,99,0.0,0.0,0.480835743909,0.876810690731,0.0,0.0,0.027925268031900003,0.0,0.0,0.0
229,1_100,1,100,0.0,0.0,0.48098876891900005,0.8767267557080001,0.0,0.0,0.0193731546971,0.0,0.0,0.0
230,1_101,1,101,0.0,0.0,0.480835743909,0.876810690731,0.0,0.0,-0.026529004630299998,0.0,0.0,0.0
231,1_102,1,102,0.0,0.0,0.480070399244,0.877229965157,0.0,0.0,-0.023561944901900004,0.0,0.0,0.0
232,1_103,1,103,0.0,0.0,0.480300041057,0.87710425296,0.0,0.0,0.0237364778271,0.0,0.0,0.0
233,1_104,1,104,0.0,0.0,0.480529649952,0.8769784806470001,0.0,0.0,-0.00715584993318,0.0,0.0,0.0
234,1_105,1,105,0.0,0.0,0.479917286421,0.877313739887,0.0,0.0,-0.022165681500300002,0.0,0.0,0.0
235,1_106,1,106,0.0,0.0,0.47999384466000006,0.877271855862,0.0,0.0,0.0310668606855,0.0,0.0,0.0
236,1_107,1,107,0.0,0.0,0.480606178932,0.876936543185,0.0,0.0,0.008028514559169999,0.0,0.0,0.0
237,1_108,1,108,0.0,0.0,0.479917286421,0.877313739887,0.0,0.0,-0.0300196631343,0.0,0.0,0.0
238,1_109,1,109,0.0,0.0,0.479611016922,0.87748120917,0.0,0.0,0.010821041362399999,0.0,0.0,0.0
239,1_110,1,110,0.0,0.0,0.47984072452699994,0.8773556172299999,0.0,0.0,0.0232128790515,0.0,0.0,0.0
240,1_111,1,111,0.0,0.0,0.480070399244,0.877229965157,0.0,0.0,-0.006632251157579999,0.0,0.0,0.0
241,1_112,1,112,0.0,0.0,0.479457860256,0.8775649037190001,0.0,0.0,-0.0214675497995,0.0,0.0,0.0
242,1_113,1,113,0.0,0.0,0.479304688984,0.8776485715350001,0.0,0.0,-0.011868238913600001,0.0,0.0,0.0
243,1_114,1,114,0.0,0.0,0.479611016922,0.87748120917,0.0,0.0,0.0214675497995,0.0,0.0,0.0
244,1_115,1,115,0.0,0.0,0.47999384466000006,0.877271855862,0.0,0.0,-0.008901179185170001,0.0,0.0,0.0
245,1_116,1,116,0.0,0.0,0.47984072452699994,0.8773556172299999,0.0,0.0,-0.025830872929500003,0.0,0.0,0.0
246,1_117,1,117,0.0,0.0,0.47922809787299997,0.8776903954180001,0.0,0.0,-0.0102974425868,0.0,0.0,0.0
247,1_118,1,118,0.0,0.0,0.47922809787299997,0.8776903954180001,0.0,0.0,0.00488692190558,0.0,0.0,0.0
248,1_119,1,119,0.0,0.0,0.47953444041500004,0.877523059786,0.0,0.0,0.0127409035396,0.0,0.0,0.0
249,1_120,1,120,0.0,0.0,0.479611016922,0.87748120917,0.0,0.0,0.007679448708779999,0.0,0.0,0.0
250,1_121,1,121,0.0,0.0,0.47922809787299997,0.8776903954180001,0.0,0.0,-0.0219911485751,0.0,0.0,0.0
251,1_122,1,122,0.0,0.0,0.47907490470299996,0.877774023131,0.0,0.0,-0.014660765716799999,0.0,0.0,0.0
252,1_123,1,123,0.0,0.0,0.479304688984,0.8776485715350001,0.0,0.0,0.0111701072128,0.0,0.0,0.0
253,1_124,1,124,0.0,0.0,0.47968758977700005,0.877439351872,0.0,0.0,0.0164060949687,0.0,0.0,0.0
254,1_125,1,125,0.0,0.0,0.47907490470299996,0.877774023131,0.0,0.0,-0.0256563400043,0.0,0.0,0.0
255,1_126,1,126,0.0,0.0,0.478845087586,0.877899414566,0.0,0.0,-0.0038397243543899996,0.0,0.0,0.0
256,1_127,1,127,0.0,0.0,0.479151503112,0.8777322126170001,0.0,0.0,0.0132645023152,0.0,0.0,0.0
257,1_128,1,128,0.0,0.0,0.478998302645,0.8778158269609999,0.0,0.0,-0.0239110107523,0.0,0.0,0.0
258,2_0,2,0,0.0,0.0,0.478691857941,0.877982975428,0.0,0.0,0.0034906585039899997,0.0,0.0,0.0
259,2_1,2,1,0.0,0.0,0.479151503112,0.8777322126170001,0.0,0.0,0.03403392041390001,0.0,0.0,0.0
260,2_2,2,2,0.0,0.0,0.47922809787299997,0.8776903954180001,0.0,0.0,-0.023561944901900004,0.0,0.0,0.0
261,2_3,2,3,0.0,0.0,0.478615237649,0.8780247458299999,0.0,0.0,-0.017453292519900004,0.0,0.0,0.0
262,2_4,2,4,0.0,0.0,0.478691857941,0.877982975428,0.0,0.0,0.0319395253115,0.0,0.0,0.0
263,2_5,2,5,0.0,0.0,0.47922809787299997,0.8776903954180001,0.0,0.0,0.0020943951023900003,0.0,0.0,0.0
264,2_6,2,6,0.0,0.0,0.478385354909,0.8781500169149999,0.0,0.0,-0.029670597283900004,0.0,0.0,0.0
265,2_7,2,7,0.0,0.0,0.478232081533,0.878233497535,0.0,0.0,-0.017453292519900004,0.0,0.0,0.0
266,2_8,2,8,0.0,0.0,0.478232081533,0.878233497535,0.0,0.0,0.0312413936107,0.0,0.0,0.0
267,2_9,2,9,0.0,0.0,0.478998302645,0.8778158269609999,0.0,0.0,-0.0115191730632,0.0,0.0,0.0
268,2_10,2,10,0.0,0.0,0.47876847458599997,0.87794119834,0.0,0.0,-0.0328121899375,0.0,0.0,0.0
269,2_11,2,11,0.0,0.0,0.478002144155,0.878358668303,0.0,0.0,-0.0261799387799,0.0,0.0,0.0
270,2_12,2,12,0.0,0.0,0.477772174015,0.8784837788700001,0.0,0.0,-0.007679448708779999,0.0,0.0,0.0
271,2_13,2,13,0.0,0.0,0.47853861371399997,0.8780665095450001,0.0,0.0,0.0383972435439,0.0,0.0,0.0
272,2_14,2,14,0.0,0.0,0.478691857941,0.877982975428,0.0,0.0,0.0183259571459,0.0,0.0,0.0
273,2_15,2,15,0.0,0.0,0.47792549108099996,0.8784003785150001,0.0,0.0,-0.039618974020300006,0.0,0.0,0.0
274,2_16,2,16,0.0,0.0,0.477695510024,0.878525469012,0.0,0.0,-0.022165681500300002,0.0,0.0,0.0
275,2_17,2,17,0.0,0.0,0.477618842395,0.878567152464,0.0,0.0,0.0275762021815,0.0,0.0,0.0
276,2_18,2,18,0.0,0.0,0.47876847458599997,0.87794119834,0.0,0.0,0.0165806278939,0.0,0.0,0.0
277,2_19,2,19,0.0,0.0,0.478691857941,0.877982975428,0.0,0.0,-0.0178023583703,0.0,0.0,0.0
278,2_20,2,20,0.0,0.0,0.47731213551299995,0.878733819363,0.0,0.0,-0.0244346095279,0.0,0.0,0.0
279,2_21,2,21,0.0,0.0,0.47715876026,0.878817112662,0.0,0.0,-0.0188495559215,0.0,0.0,0.0
280,2_22,2,22,0.0,0.0,0.477772174015,0.8784837788700001,0.0,0.0,0.046076692252699995,0.0,0.0,0.0
281,2_23,2,23,0.0,0.0,0.477695510024,0.878525469012,0.0,0.0,-0.03525565089030001,0.0,0.0,0.0
282,2_24,2,24,0.0,0.0,0.47677525854599995,0.879025228784,0.0,0.0,-0.0291469985083,0.0,0.0,0.0
283,2_25,2,25,0.0,0.0,0.47731213551299995,0.878733819363,0.0,0.0,0.0535816080362,0.0,0.0,0.0
284,2_26,2,26,0.0,0.0,0.47807879358800004,0.878316951403,0.0,0.0,-0.009599310885969999,0.0,0.0,0.0
285,2_27,2,27,0.0,0.0,0.476621832441,0.879108428375,0.0,0.0,-0.0406661715715,0.0,0.0,0.0
286,2_28,2,28,0.0,0.0,0.476468391817,0.879191601188,0.0,0.0,0.0244346095279,0.0,0.0,0.0
287,2_29,2,29,0.0,0.0,0.477618842395,0.878567152464,0.0,0.0,0.000698131700798,0.0,0.0,0.0
288,2_30,2,30,0.0,0.0,0.476621832441,0.879108428375,0.0,0.0,-0.047996554429800005,0.0,0.0,0.0
289,2_31,2,31,0.0,0.0,0.47616146703100004,0.8793578664659999,0.0,0.0,-0.03403392041390001,0.0,0.0,0.0
290,2_32,2,32,0.0,0.0,0.47669854730899996,0.879066831927,0.0,0.0,0.0610865238198,0.0,0.0,0.0
291,2_33,2,33,0.0,0.0,0.477465496226,0.878650499296,0.0,0.0,-0.0301941960595,0.0,0.0,0.0
292,2_34,2,34,0.0,0.0,0.477005370471,0.8789003791910001,0.0,0.0,-0.066497044501,0.0,0.0,0.0
293,2_35,2,35,0.0,0.0,0.47577772946400004,0.879565547385,0.0,0.0,-0.0373500459927,0.0,0.0,0.0
294,2_36,2,36,0.0,0.0,0.476238203668,0.879316310191,0.0,0.0,0.0596902604182,0.0,0.0,0.0
295,2_37,2,37,0.0,0.0,0.47677525854599995,0.879025228784,0.0,0.0,0.06143558967019999,0.0,0.0,0.0
296,2_38,2,38,0.0,0.0,0.476545113943,0.8791500181290001,0.0,0.0,-0.05934119456780001,0.0,0.0,0.0
297,2_39,2,39,0.0,0.0,0.47570097107799997,0.879607063475,0.0,0.0,-0.07260569688299999,0.0,0.0,0.0
298,2_40,2,40,0.0,0.0,0.475317124823,0.879814543441,0.0,0.0,0.024783675378299997,0.0,0.0,0.0
299,2_41,2,41,0.0,0.0,0.47570097107799997,0.879607063475,0.0,0.0,0.0548033385126,0.0,0.0,0.0
300,2_42,2,42,0.0,0.0,0.47669854730899996,0.879066831927,0.0,0.0,-0.0242600766027,0.0,0.0,0.0
301,2_43,2,43,0.0,0.0,0.476238203668,0.879316310191,0.0,0.0,-0.061784655520599994,0.0,0.0,0.0
302,2_44,2,44,0.0,0.0,0.47477958805200005,0.880104733977,0.0,0.0,-0.0280998009571,0.0,0.0,0.0
303,2_45,2,45,0.0,0.0,0.47562420906999997,0.8796485728669999,0.0,0.0,0.0720820981074,0.0,0.0,0.0
304,2_46,2,46,0.0,0.0,0.47608472676700003,0.879399416044,0.0,0.0,-0.0486946861306,0.0,0.0,0.0
305,2_47,2,47,0.0,0.0,0.474702782617,0.880146162961,0.0,0.0,-0.0539306738866,0.0,0.0,0.0
306,2_48,2,48,0.0,0.0,0.475163560978,0.879897488528,0.0,0.0,0.069115038379,0.0,0.0,0.0
307,2_49,2,49,0.0,0.0,0.476238203668,0.879316310191,0.0,0.0,0.009599310885969999,0.0,0.0,0.0
308,2_50,2,50,0.0,0.0,0.474702782617,0.880146162961,0.0,0.0,-0.05707226654019999,0.0,0.0,0.0
309,2_51,2,51,0.0,0.0,0.474241874114,0.880394596097,0.0,0.0,0.029496064358700003,0.0,0.0,0.0
310,2_52,2,52,0.0,0.0,0.47570097107799997,0.879607063475,0.0,0.0,0.014311699866400001,0.0,0.0,0.0
311,2_53,2,53,0.0,0.0,0.474395524734,0.880311811867,0.0,0.0,-0.07260569688299999,0.0,0.0,0.0
312,2_54,2,54,0.0,0.0,0.473857684371,0.880601439337,0.0,0.0,0.0415388361975,0.0,0.0,0.0
313,2_55,2,55,0.0,0.0,0.47524034471,0.879856019335,0.0,0.0,0.039618974020300006,0.0,0.0,0.0
314,2_56,2,56,0.0,0.0,0.474165043386,0.8804359781559999,0.0,0.0,-0.07557275661139999,0.0,0.0,0.0
315,2_57,2,57,0.0,0.0,0.47362712721699995,0.88072546481,0.0,0.0,-0.0645771823238,0.0,0.0,0.0
316,2_58,2,58,0.0,0.0,0.473550267618,0.8807667932200001,0.0,0.0,0.0581194640914,0.0,0.0,0.0
317,2_59,2,59,0.0,0.0,0.475163560978,0.879897488528,0.0,0.0,0.0144862327916,0.0,0.0,0.0
318,2_60,2,60,0.0,0.0,0.474933188073,0.880021855903,0.0,0.0,-0.0375245789179,0.0,0.0,0.0
319,2_61,2,61,0.0,0.0,0.473089034311,0.881014622815,0.0,0.0,-0.06928957130419999,0.0,0.0,0.0
320,2_62,2,62,0.0,0.0,0.473550267618,0.8807667932200001,0.0,0.0,0.0790634151153,0.0,0.0,0.0
321,2_63,2,63,0.0,0.0,0.474165043386,0.8804359781559999,0.0,0.0,0.0731292956586,0.0,0.0,0.0
322,2_64,2,64,0.0,0.0,0.474856389871,0.8800632982909999,0.0,0.0,-0.042411500823499995,0.0,0.0,0.0
323,2_65,2,65,0.0,0.0,0.472473854835,0.881344686543,0.0,0.0,-0.0898844564777,0.0,0.0,0.0
324,2_66,2,66,0.0,0.0,0.472089250705,0.881550758248,0.0,0.0,-0.0305432619099,0.0,0.0,0.0
325,2_67,2,67,0.0,0.0,0.47347340441200003,0.880808114923,0.0,0.0,0.0591666616426,0.0,0.0,0.0
326,2_68,2,68,0.0,0.0,0.473857684371,0.880601439337,0.0,0.0,0.0390953752447,0.0,0.0,0.0
327,2_69,2,69,0.0,0.0,0.472781473377,0.8811797083640001,0.0,0.0,-0.0753982236862,0.0,0.0,0.0
328,2_70,2,70,0.0,0.0,0.472320023973,0.881427135363,0.0,0.0,0.042411500823499995,0.0,0.0,0.0
329,2_71,2,71,0.0,0.0,0.473703983209,0.880684129692,0.0,0.0,0.0317649923863,0.0,0.0,0.0
330,2_72,2,72,0.0,0.0,0.473319667185,0.880890738205,0.0,0.0,-0.0607374579694,0.0,0.0,0.0
331,2_73,2,73,0.0,0.0,0.47185844508100006,0.881674320714,0.0,0.0,0.0033161255787899995,0.0,0.0,0.0
332,2_74,2,74,0.0,0.0,0.47316591553900006,0.880973334654,0.0,0.0,0.054279739737,0.0,0.0,0.0
333,2_75,2,75,0.0,0.0,0.473089034311,0.881014622815,0.0,0.0,-0.0548033385126,0.0,0.0,0.0
334,2_76,2,76,0.0,0.0,0.47170455669699995,0.881756662119,0.0,0.0,-0.0239110107523,0.0,0.0,0.0
335,2_77,2,77,0.0,0.0,0.47270457413999994,0.881220962975,0.0,0.0,0.0546288055874,0.0,0.0,0.0
336,2_78,2,78,0.0,0.0,0.473396537601,0.880849429918,0.0,0.0,-0.0207694180987,0.0,0.0,0.0
337,2_79,2,79,0.0,0.0,0.471550653943,0.881838976665,0.0,0.0,-0.05270894341019999,0.0,0.0,0.0
338,2_80,2,80,0.0,0.0,0.472012319092,0.8815919524510001,0.0,0.0,0.0600393262686,0.0,0.0,0.0
339,2_81,2,81,0.0,0.0,0.473089034311,0.881014622815,0.0,0.0,-0.00977384381117,0.0,0.0,0.0
340,2_82,2,82,0.0,0.0,0.47270457413999994,0.881220962975,0.0,0.0,-0.047298422729,0.0,0.0,0.0
341,2_83,2,83,0.0,0.0,0.471319772882,0.881962398116,0.0,0.0,-0.0328121899375,0.0,0.0,0.0
342,2_84,2,84,0.0,0.0,0.472320023973,0.881427135363,0.0,0.0,0.06579891280019999,0.0,0.0,0.0
343,2_85,2,85,0.0,0.0,0.47285836901199996,0.881138447042,0.0,0.0,0.0675442420522,0.0,0.0,0.0
344,2_86,2,86,0.0,0.0,0.472935261047,0.8810971790090001,0.0,0.0,-0.0631809189222,0.0,0.0,0.0
345,2_87,2,87,0.0,0.0,0.47185844508100006,0.881674320714,0.0,0.0,-0.0862192650485,0.0,0.0,0.0
346,2_88,2,88,0.0,0.0,0.47124280534900004,0.882003525167,0.0,0.0,0.022340214425499997,0.0,0.0,0.0
347,2_89,2,89,0.0,0.0,0.47170455669699995,0.881756662119,0.0,0.0,0.0631809189222,0.0,0.0,0.0
348,2_90,2,90,0.0,0.0,0.47285836901199996,0.881138447042,0.0,0.0,-0.0167551608191,0.0,0.0,0.0
349,2_91,2,91,0.0,0.0,0.472473854835,0.881344686543,0.0,0.0,-0.0528834763354,0.0,0.0,0.0
350,2_92,2,92,0.0,0.0,0.470934899335,0.8821679661990001,0.0,0.0,-0.0195476876223,0.0,0.0,0.0
351,2_93,2,93,0.0,0.0,0.472012319092,0.8815919524510001,0.0,0.0,0.0764454212374,0.0,0.0,0.0
352,2_94,2,94,0.0,0.0,0.472550764869,0.8813034520649999,0.0,0.0,0.06946410422939998,0.0,0.0,0.0
353,2_95,2,95,0.0,0.0,0.472243103147,0.881468349704,0.0,0.0,-0.0762708883122,0.0,0.0,0.0
354,2_96,2,96,0.0,0.0,0.471627607116,0.8817978227500001,0.0,0.0,-0.0766199541626,0.0,0.0,0.0
355,2_97,2,97,0.0,0.0,0.471011881219,0.8821268660179999,0.0,0.0,0.0195476876223,0.0,0.0,0.0
356,2_98,2,98,0.0,0.0,0.47285836901199996,0.881138447042,0.0,0.0,0.046425758103,0.0,0.0,0.0
357,2_99,2,99,0.0,0.0,0.472089250705,0.881550758248,0.0,0.0,-0.07138396640660001,0.0,0.0,0.0
358,2_100,2,100,0.0,0.0,0.470934899335,0.8821679661990001,0.0,0.0,0.00820304748437,0.0,0.0,0.0
359,2_101,2,101,0.0,0.0,0.472473854835,0.881344686543,0.0,0.0,0.0642281164734,0.0,0.0,0.0
360,2_102,2,102,0.0,0.0,0.472243103147,0.881468349704,0.0,0.0,-0.07120943348139999,0.0,0.0,0.0
361,2_103,2,103,0.0,0.0,0.470703932165,0.882291226435,0.0,0.0,-0.03473205211469999,0.0,0.0,0.0
362,2_104,2,104,0.0,0.0,0.472243103147,0.881468349704,0.0,0.0,0.08395033702089999,0.0,0.0,0.0
363,2_105,2,105,0.0,0.0,0.472473854835,0.881344686543,0.0,0.0,-0.0493928178314,0.0,0.0,0.0
364,2_106,2,106,0.0,0.0,0.471550653943,0.881838976665,0.0,0.0,-0.0832522053201,0.0,0.0,0.0
365,2_107,2,107,0.0,0.0,0.47047293273400004,0.882414426199,0.0,0.0,0.0219911485751,0.0,0.0,0.0
366,2_108,2,108,0.0,0.0,0.472550764869,0.8813034520649999,0.0,0.0,0.0651007810994,0.0,0.0,0.0
367,2_109,2,109,0.0,0.0,0.47285836901199996,0.881138447042,0.0,0.0,0.023387411976700002,0.0,0.0,0.0
368,2_110,2,110,0.0,0.0,0.471319772882,0.881962398116,0.0,0.0,-0.0984365698125,0.0,0.0,0.0
369,2_111,2,111,0.0,0.0,0.470626935939,0.882332299742,0.0,0.0,-0.0766199541626,0.0,0.0,0.0
370,2_112,2,112,0.0,0.0,0.471319772882,0.881962398116,0.0,0.0,0.0895353906273,0.0,0.0,0.0
371,2_113,2,113,0.0,0.0,0.472012319092,0.8815919524510001,0.0,0.0,0.07766715171369999,0.0,0.0,0.0
372,2_114,2,114,0.0,0.0,0.47170455669699995,0.881756662119,0.0,0.0,-0.0813323431429,0.0,0.0,0.0
373,2_115,2,115,0.0,0.0,0.46993380868900003,0.882701657102,0.0,0.0,-0.036826447217099996,0.0,0.0,0.0
374,2_116,2,116,0.0,0.0,0.470010837151,0.8826606442799999,0.0,0.0,0.03403392041390001,0.0,0.0,0.0
375,2_117,2,117,0.0,0.0,0.472166178724,0.881509557333,0.0,0.0,0.0535816080362,0.0,0.0,0.0
376,2_118,2,118,0.0,0.0,0.472320023973,0.881427135363,0.0,0.0,0.012042771838799999,0.0,0.0,0.0
377,2_119,2,119,0.0,0.0,0.470395925757,0.882455479348,0.0,0.0,-0.0933751149817,0.0,0.0,0.0
378,2_120,2,120,0.0,0.0,0.470164883336,0.88257859847,0.0,0.0,0.056897733614999994,0.0,0.0,0.0
379,2_121,2,121,0.0,0.0,0.471935383883,0.881633139939,0.0,0.0,0.015358897417600001,0.0,0.0,0.0
380,2_122,2,122,0.0,0.0,0.470626935939,0.882332299742,0.0,0.0,-0.08237954069410001,0.0,0.0,0.0
381,2_123,2,123,0.0,0.0,0.470164883336,0.88257859847,0.0,0.0,0.059515727493,0.0,0.0,0.0
382,2_124,2,124,0.0,0.0,0.471627607116,0.8817978227500001,0.0,0.0,0.042236967898300004,0.0,0.0,0.0
383,2_125,2,125,0.0,0.0,0.470395925757,0.882455479348,0.0,0.0,-0.08447393579649999,0.0,0.0,0.0
384,2_126,2,126,0.0,0.0,0.469702701834,0.8828246552339999,0.0,0.0,0.034906585039900004,0.0,0.0,0.0
385,2_127,2,127,0.0,0.0,0.471550653943,0.881838976665,0.0,0.0,0.0546288055874,0.0,0.0,0.0
386,2_128,2,128,0.0,0.0,0.470857913864,0.882209059663,0.0,0.0,-0.0935496479069,0.0,0.0,0.0
387,3_0,3,0,0.0,0.0,0.469702701834,0.8828246552339999,0.0,0.0,0.0287979326579,0.0,0.0,0.0
388,3_1,3,1,0.0,0.0,0.470087862033,0.882619624736,0.0,0.0,0.0523598775598,0.0,0.0,0.0
389,3_2,3,2,0.0,0.0,0.47147369718000004,0.881880123865,0.0,0.0,0.0315904594611,0.0,0.0,0.0
390,3_3,3,3,0.0,0.0,0.46977974103,0.8827836625799999,0.0,0.0,-0.08674286382410001,0.0,0.0,0.0
391,3_4,3,4,0.0,0.0,0.46931745221,0.8830295176559999,0.0,0.0,-0.04084070449669999,0.0,0.0,0.0
392,3_5,3,5,0.0,0.0,0.47024190105700003,0.882537565484,0.0,0.0,0.0635299847726,0.0,0.0,0.0
393,3_6,3,6,0.0,0.0,0.47116583422700004,0.882044645501,0.0,0.0,-0.029496064358700003,0.0,0.0,0.0
394,3_7,3,7,0.0,0.0,0.470703932165,0.882291226435,0.0,0.0,-0.0666715774262,0.0,0.0,0.0
395,3_8,3,8,0.0,0.0,0.470087862033,0.882619624736,0.0,0.0,-0.07958701389089999,0.0,0.0,0.0
396,3_9,3,9,0.0,0.0,0.469394509285,0.882988558619,0.0,0.0,0.027227136331099997,0.0,0.0,0.0
397,3_10,3,10,0.0,0.0,0.470703932165,0.882291226435,0.0,0.0,0.047996554429800005,0.0,0.0,0.0
398,3_11,3,11,0.0,0.0,0.471011881219,0.8821268660179999,0.0,0.0,0.0373500459927,0.0,0.0,0.0
399,3_12,3,12,0.0,0.0,0.470010837151,0.8826606442799999,0.0,0.0,-0.0774926187885,0.0,0.0,0.0
400,3_13,3,13,0.0,0.0,0.469394509285,0.882988558619,0.0,0.0,-0.0637045176978,0.0,0.0,0.0
401,3_14,3,14,0.0,0.0,0.470164883336,0.88257859847,0.0,0.0,0.0644026493986,0.0,0.0,0.0
402,3_15,3,15,0.0,0.0,0.471011881219,0.8821268660179999,0.0,0.0,-0.00244346095279,0.0,0.0,0.0
403,3_16,3,16,0.0,0.0,0.46931745221,0.8830295176559999,0.0,0.0,-0.0628318530718,0.0,0.0,0.0
404,3_17,3,17,0.0,0.0,0.46977974103,0.8827836625799999,0.0,0.0,0.0502654824574,0.0,0.0,0.0
405,3_18,3,18,0.0,0.0,0.470857913864,0.882209059663,0.0,0.0,0.00244346095279,0.0,0.0,0.0
406,3_19,3,19,0.0,0.0,0.469471562786,0.8829475928589999,0.0,0.0,-0.074351026135,0.0,0.0,0.0
407,3_20,3,20,0.0,0.0,0.46962565906099996,0.8828656411660001,0.0,0.0,0.0466002910282,0.0,0.0,0.0
408,3_21,3,21,0.0,0.0,0.470703932165,0.882291226435,0.0,0.0,0.03403392041390001,0.0,0.0,0.0
409,3_22,3,22,0.0,0.0,0.46962565906099996,0.8828656411660001,0.0,0.0,-0.07365289443419999,0.0,0.0,0.0
410,3_23,3,23,0.0,0.0,0.46916332733800004,0.883111415554,0.0,0.0,-0.047996554429800005,0.0,0.0,0.0
411,3_24,3,24,0.0,0.0,0.469702701834,0.8828246552339999,0.0,0.0,0.0486946861306,0.0,0.0,0.0
412,3_25,3,25,0.0,0.0,0.470857913864,0.882209059663,0.0,0.0,0.0157079632679,0.0,0.0,0.0
413,3_26,3,26,0.0,0.0,0.470780924807,0.882250146408,0.0,0.0,-0.023387411976700002,0.0,0.0,0.0
414,3_27,3,27,0.0,0.0,0.469009188174,0.883193286551,0.0,0.0,-0.060388392119,0.0,0.0,0.0
415,3_28,3,28,0.0,0.0,0.468932113235,0.8832342119600001,0.0,0.0,0.0181514242207,0.0,0.0,0.0
416,3_29,3,29,0.0,0.0,0.470318915198,0.882496525776,0.0,0.0,0.0572467994654,0.0,0.0,0.0
417,3_30,3,30,0.0,0.0,0.470626935939,0.882332299742,0.0,0.0,0.0345575191895,0.0,0.0,0.0
418,3_31,3,31,0.0,0.0,0.469548612711,0.882906620374,0.0,0.0,-0.065624379875,0.0,0.0,0.0
419,3_32,3,32,0.0,0.0,0.46916332733800004,0.883111415554,0.0,0.0,-0.0406661715715,0.0,0.0,0.0
420,3_33,3,33,0.0,0.0,0.46977974103,0.8827836625799999,0.0,0.0,0.0633554518474,0.0,0.0,0.0
421,3_34,3,34,0.0,0.0,0.470780924807,0.882250146408,0.0,0.0,-0.00680678408278,0.0,0.0,0.0
422,3_35,3,35,0.0,0.0,0.469471562786,0.8829475928589999,0.0,0.0,-0.0616101225954,0.0,0.0,0.0
423,3_36,3,36,0.0,0.0,0.46977974103,0.8827836625799999,0.0,0.0,0.0598647933434,0.0,0.0,0.0
424,3_37,3,37,0.0,0.0,0.470780924807,0.882250146408,0.0,0.0,0.0038397243543899996,0.0,0.0,0.0
425,3_38,3,38,0.0,0.0,0.469471562786,0.8829475928589999,0.0,0.0,-0.06946410422939998,0.0,0.0,0.0
426,3_39,3,39,0.0,0.0,0.46931745221,0.8830295176559999,0.0,0.0,0.054105206811800005,0.0,0.0,0.0
427,3_40,3,40,0.0,0.0,0.470780924807,0.882250146408,0.0,0.0,0.0383972435439,0.0,0.0,0.0
428,3_41,3,41,0.0,0.0,0.46962565906099996,0.8828656411660001,0.0,0.0,-0.0818559419185,0.0,0.0,0.0
429,3_42,3,42,0.0,0.0,0.469009188174,0.883193286551,0.0,0.0,0.0287979326579,0.0,0.0,0.0
430,3_43,3,43,0.0,0.0,0.470626935939,0.882332299742,0.0,0.0,0.0392699081699,0.0,0.0,0.0
431,3_44,3,44,0.0,0.0,0.46993380868900003,0.882701657102,0.0,0.0,-0.0724311639578,0.0,0.0,0.0
432,3_45,3,45,0.0,0.0,0.46877795264300004,0.883316042601,0.0,0.0,0.0312413936107,0.0,0.0,0.0
433,3_46,3,46,0.0,0.0,0.46924039156099995,0.883070469967,0.0,0.0,0.0689405054538,0.0,0.0,0.0
434,3_47,3,47,0.0,0.0,0.470780924807,0.882250146408,0.0,0.0,0.0418879020479,0.0,0.0,0.0
435,3_48,3,48,0.0,0.0,0.470857913864,0.882209059663,0.0,0.0,0.00558505360638,0.0,0.0,0.0
436,3_49,3,49,0.0,0.0,0.46862377777099995,0.883397846334,0.0,0.0,-0.08744099552489999,0.0,0.0,0.0
437,3_50,3,50,0.0,0.0,0.46831538520599997,0.883561373069,0.0,0.0,-0.0287979326579,0.0,0.0,0.0
438,3_51,3,51,0.0,0.0,0.46993380868900003,0.882701657102,0.0,0.0,0.0731292956586,0.0,0.0,0.0
439,3_52,3,52,0.0,0.0,0.470010837151,0.8826606442799999,0.0,0.0,-0.0513126800086,0.0,0.0,0.0
440,3_53,3,53,0.0,0.0,0.469394509285,0.882988558619,0.0,0.0,-0.0809832772925,0.0,0.0,0.0
441,3_54,3,54,0.0,0.0,0.468546684981,0.8834387381100001,0.0,0.0,0.0434586983747,0.0,0.0,0.0
442,3_55,3,55,0.0,0.0,0.469009188174,0.883193286551,0.0,0.0,0.066497044501,0.0,0.0,0.0
443,3_56,3,56,0.0,0.0,0.470626935939,0.882332299742,0.0,0.0,0.0382227106187,0.0,0.0,0.0
444,3_57,3,57,0.0,0.0,0.469009188174,0.883193286551,0.0,0.0,-0.10035643199,0.0,0.0,0.0
445,3_58,3,58,0.0,0.0,0.468546684981,0.8834387381100001,0.0,0.0,0.046425758103,0.0,0.0,0.0
446,3_59,3,59,0.0,0.0,0.470395925757,0.882455479348,0.0,0.0,0.04485496177630001,0.0,0.0,0.0
447,3_60,3,60,0.0,0.0,0.46962565906099996,0.8828656411660001,0.0,0.0,-0.0837758040957,0.0,0.0,0.0
448,3_61,3,61,0.0,0.0,0.468546684981,0.8834387381100001,0.0,0.0,0.0371755130675,0.0,0.0,0.0
449,3_62,3,62,0.0,0.0,0.470087862033,0.882619624736,0.0,0.0,0.0640535835482,0.0,0.0,0.0
450,3_63,3,63,0.0,0.0,0.46977974103,0.8827836625799999,0.0,0.0,-0.09075712110369999,0.0,0.0,0.0
451,3_64,3,64,0.0,0.0,0.468469588624,0.883479623158,0.0,0.0,0.0216420827247,0.0,0.0,0.0
452,3_65,3,65,0.0,0.0,0.47024190105700003,0.882537565484,0.0,0.0,0.075223690761,0.0,0.0,0.0
453,3_66,3,66,0.0,0.0,0.46977974103,0.8827836625799999,0.0,0.0,-0.08237954069410001,0.0,0.0,0.0
454,3_67,3,67,0.0,0.0,0.468469588624,0.883479623158,0.0,0.0,0.0033161255787899995,0.0,0.0,0.0
455,3_68,3,68,0.0,0.0,0.470087862033,0.882619624736,0.0,0.0,0.064751715249,0.0,0.0,0.0
456,3_69,3,69,0.0,0.0,0.47047293273400004,0.882414426199,0.0,0.0,0.046251225177800004,0.0,0.0,0.0
457,3_70,3,70,0.0,0.0,0.469548612711,0.882906620374,0.0,0.0,-0.0993092344385,0.0,0.0,0.0
458,3_71,3,71,0.0,0.0,0.46877795264300004,0.883316042601,0.0,0.0,-0.0809832772925,0.0,0.0,0.0
459,3_72,3,72,0.0,0.0,0.469086259542,0.883152354415,0.0,0.0,0.0666715774262,0.0,0.0,0.0
460,3_73,3,73,0.0,0.0,0.469702701834,0.8828246552339999,0.0,0.0,0.0762708883122,0.0,0.0,0.0
461,3_74,3,74,0.0,0.0,0.470087862033,0.882619624736,0.0,0.0,-0.057770398241,0.0,0.0,0.0
462,3_75,3,75,0.0,0.0,0.468392488698,0.883520501477,0.0,0.0,-0.029496064358700003,0.0,0.0,0.0
463,3_76,3,76,0.0,0.0,0.468469588624,0.883479623158,0.0,0.0,0.022165681500300002,0.0,0.0,0.0
464,3_77,3,77,0.0,0.0,0.470164883336,0.88257859847,0.0,0.0,0.059515727493,0.0,0.0,0.0
465,3_78,3,78,0.0,0.0,0.47047293273400004,0.882414426199,0.0,0.0,0.0300196631343,0.0,0.0,0.0
466,3_79,3,79,0.0,0.0,0.46924039156099995,0.883070469967,0.0,0.0,-0.08412486994610001,0.0,0.0,0.0
467,3_80,3,80,0.0,0.0,0.468932113235,0.8832342119600001,0.0,0.0,0.042236967898300004,0.0,0.0,0.0
468,3_81,3,81,0.0,0.0,0.47024190105700003,0.882537565484,0.0,0.0,0.0434586983747,0.0,0.0,0.0
469,3_82,3,82,0.0,0.0,0.46916332733800004,0.883111415554,0.0,0.0,-0.0706858347058,0.0,0.0,0.0
470,3_83,3,83,0.0,0.0,0.46885503472400003,0.883275130644,0.0,0.0,0.0338593874887,0.0,0.0,0.0
471,3_84,3,84,0.0,0.0,0.47024190105700003,0.882537565484,0.0,0.0,0.0219911485751,0.0,0.0,0.0
472,3_85,3,85,0.0,0.0,0.46931745221,0.8830295176559999,0.0,0.0,-0.07731808586330001,0.0,0.0,0.0
473,3_86,3,86,0.0,0.0,0.468546684981,0.8834387381100001,0.0,0.0,-0.0488692190558,0.0,0.0,0.0
474,3_87,3,87,0.0,0.0,0.468932113235,0.8832342119600001,0.0,0.0,0.0528834763354,0.0,0.0,0.0
475,3_88,3,88,0.0,0.0,0.470010837151,0.8826606442799999,0.0,0.0,-0.011868238913600001,0.0,0.0,0.0
476,3_89,3,89,0.0,0.0,0.469548612711,0.882906620374,0.0,0.0,-0.061784655520599994,0.0,0.0,0.0
477,3_90,3,90,0.0,0.0,0.46831538520599997,0.883561373069,0.0,0.0,-0.0219911485751,0.0,0.0,0.0
478,3_91,3,91,0.0,0.0,0.469471562786,0.8829475928589999,0.0,0.0,0.0605629250442,0.0,0.0,0.0
479,3_92,3,92,0.0,0.0,0.46977974103,0.8827836625799999,0.0,0.0,0.0357792496659,0.0,0.0,0.0
480,3_93,3,93,0.0,0.0,0.46877795264300004,0.883316042601,0.0,0.0,-0.0651007810994,0.0,0.0,0.0
481,3_94,3,94,0.0,0.0,0.468392488698,0.883520501477,0.0,0.0,0.023387411976700002,0.0,0.0,0.0
482,3_95,3,95,0.0,0.0,0.46870086699100005,0.8833569478309999,0.0,0.0,0.0493928178314,0.0,0.0,0.0
483,3_96,3,96,0.0,0.0,0.469856776649,0.882742663202,0.0,0.0,-0.00715584993318,0.0,0.0,0.0
484,3_97,3,97,0.0,0.0,0.469548612711,0.882906620374,0.0,0.0,-0.045378560551899996,0.0,0.0,0.0
485,3_98,3,98,0.0,0.0,0.468238278148,0.883602237931,0.0,0.0,-0.0312413936107,0.0,0.0,0.0
486,3_99,3,99,0.0,0.0,0.469086259542,0.883152354415,0.0,0.0,0.045553093477099994,0.0,0.0,0.0
487,3_100,3,100,0.0,0.0,0.469471562786,0.8829475928589999,0.0,0.0,-0.017453292519900004,0.0,0.0,0.0
488,3_101,3,101,0.0,0.0,0.468084053333,0.883683947469,0.0,0.0,-0.0331612557879,0.0,0.0,0.0
489,3_102,3,102,0.0,0.0,0.46862377777099995,0.883397846334,0.0,0.0,0.049043751981,0.0,0.0,0.0
490,3_103,3,103,0.0,0.0,0.469394509285,0.882988558619,0.0,0.0,-0.00715584993318,0.0,0.0,0.0
491,3_104,3,104,0.0,0.0,0.468161167523,0.883643096065,0.0,0.0,-0.0624827872214,0.0,0.0,0.0
492,3_105,3,105,0.0,0.0,0.468469588624,0.883479623158,0.0,0.0,0.04502949470150001,0.0,0.0,0.0
493,3_106,3,106,0.0,0.0,0.469394509285,0.882988558619,0.0,0.0,0.023387411976700002,0.0,0.0,0.0
494,3_107,3,107,0.0,0.0,0.46924039156099995,0.883070469967,0.0,0.0,-0.0315904594611,0.0,0.0,0.0
495,3_108,3,108,0.0,0.0,0.46800693557899997,0.8837247921439999,0.0,0.0,-0.027925268031900003,0.0,0.0,0.0
496,3_109,3,109,0.0,0.0,0.469009188174,0.883193286551,0.0,0.0,0.0518362787842,0.0,0.0,0.0
497,3_110,3,110,0.0,0.0,0.469394509285,0.882988558619,0.0,0.0,0.042236967898300004,0.0,0.0,0.0
498,3_111,3,111,0.0,0.0,0.46916332733800004,0.883111415554,0.0,0.0,-0.0438077642251,0.0,0.0,0.0
499,3_112,3,112,0.0,0.0,0.468161167523,0.883643096065,0.0,0.0,0.00645771823238,0.0,0.0,0.0
500,3_113,3,113,0.0,0.0,0.468392488698,0.883520501477,0.0,0.0,0.041713369122699996,0.0,0.0,0.0
501,3_114,3,114,0.0,0.0,0.469548612711,0.882906620374,0.0,0.0,0.035081117965099995,0.0,0.0,0.0
502,3_115,3,115,0.0,0.0,0.469702701834,0.8828246552339999,0.0,0.0,-0.00418879020479,0.0,0.0,0.0
503,3_116,3,116,0.0,0.0,0.468469588624,0.883479623158,0.0,0.0,-0.0642281164734,0.0,0.0,0.0
504,3_117,3,117,0.0,0.0,0.468161167523,0.883643096065,0.0,0.0,-0.0319395253115,0.0,0.0,0.0
505,3_118,3,118,0.0,0.0,0.46924039156099995,0.883070469967,0.0,0.0,0.0539306738866,0.0,0.0,0.0
506,3_119,3,119,0.0,0.0,0.469548612711,0.882906620374,0.0,0.0,0.0322885911619,0.0,0.0,0.0
507,3_120,3,120,0.0,0.0,0.469009188174,0.883193286551,0.0,0.0,-0.050789081233,0.0,0.0,0.0
508,3_121,3,121,0.0,0.0,0.468392488698,0.883520501477,0.0,0.0,0.0237364778271,0.0,0.0,0.0
509,3_122,3,122,0.0,0.0,0.469702701834,0.8828246552339999,0.0,0.0,0.0188495559215,0.0,0.0,0.0
510,3_123,3,123,0.0,0.0,0.46924039156099995,0.883070469967,0.0,0.0,-0.0476474885794,0.0,0.0,0.0
511,3_124,3,124,0.0,0.0,0.468392488698,0.883520501477,0.0,0.0,0.0249582083035,0.0,0.0,0.0
512,3_125,3,125,0.0,0.0,0.469471562786,0.8829475928589999,0.0,0.0,0.035081117965099995,0.0,0.0,0.0
513,3_126,3,126,0.0,0.0,0.46916332733800004,0.883111415554,0.0,0.0,-0.0607374579694,0.0,0.0,0.0
514,3_127,3,127,0.0,0.0,0.468084053333,0.883683947469,0.0,0.0,0.00453785605519,0.0,0.0,0.0
515,3_128,3,128,0.0,0.0,0.469394509285,0.882988558619,0.0,0.0,0.042935099599099996,0.0,0.0,0.0
516,4_0,4,0,0.0,0.0,0.469548612711,0.882906620374,0.0,0.0,-0.023561944901900004,0.0,0.0,0.0
517,4_1,4,1,0.0,0.0,0.46800693557899997,0.8837247921439999,0.0,0.0,-0.0298451302091,0.0,0.0,0.0
518,4_2,4,2,0.0,0.0,0.468932113235,0.8832342119600001,0.0,0.0,0.0598647933434,0.0,0.0,0.0
519,4_3,4,3,0.0,0.0,0.469471562786,0.8829475928589999,0.0,0.0,-0.0321140582367,0.0,0.0,0.0
520,4_4,4,4,0.0,0.0,0.469009188174,0.883193286551,0.0,0.0,-0.064751715249,0.0,0.0,0.0
521,4_5,4,5,0.0,0.0,0.467775560934,0.8838472857870001,0.0,0.0,-0.0019198621771900001,0.0,0.0,0.0
522,4_6,4,6,0.0,0.0,0.469086259542,0.883152354415,0.0,0.0,0.049916416607,0.0,0.0,0.0
523,4_7,4,7,0.0,0.0,0.469394509285,0.882988558619,0.0,0.0,0.036302848441499995,0.0,0.0,0.0
524,4_8,4,8,0.0,0.0,0.46870086699100005,0.8833569478309999,0.0,0.0,-0.07958701389089999,0.0,0.0,0.0
525,4_9,4,9,0.0,0.0,0.467852689379,0.883806461303,0.0,0.0,-0.057944931166199996,0.0,0.0,0.0
526,4_10,4,10,0.0,0.0,0.468238278148,0.883602237931,0.0,0.0,0.0610865238198,0.0,0.0,0.0
527,4_11,4,11,0.0,0.0,0.46885503472400003,0.883275130644,0.0,0.0,0.0684169066782,0.0,0.0,0.0
528,4_12,4,12,0.0,0.0,0.46916332733800004,0.883111415554,0.0,0.0,-0.04921828490619999,0.0,0.0,0.0
529,4_13,4,13,0.0,0.0,0.468546684981,0.8834387381100001,0.0,0.0,-0.0825540736193,0.0,0.0,0.0
530,4_14,4,14,0.0,0.0,0.467852689379,0.883806461303,0.0,0.0,0.04136430327230001,0.0,0.0,0.0
531,4_15,4,15,0.0,0.0,0.46924039156099995,0.883070469967,0.0,0.0,0.0546288055874,0.0,0.0,0.0
532,4_16,4,16,0.0,0.0,0.46877795264300004,0.883316042601,0.0,0.0,-0.0774926187885,0.0,0.0,0.0
533,4_17,4,17,0.0,0.0,0.467775560934,0.8838472857870001,0.0,0.0,0.00610865238198,0.0,0.0,0.0
534,4_18,4,18,0.0,0.0,0.46931745221,0.8830295176559999,0.0,0.0,0.0466002910282,0.0,0.0,0.0
535,4_19,4,19,0.0,0.0,0.469394509285,0.882988558619,0.0,0.0,-0.0483456202802,0.0,0.0,0.0
536,4_20,4,20,0.0,0.0,0.467929814261,0.883765630089,0.0,0.0,0.00174532925199,0.0,0.0,0.0
537,4_21,4,21,0.0,0.0,0.469086259542,0.883152354415,0.0,0.0,0.0548033385126,0.0,0.0,0.0
538,4_22,4,22,0.0,0.0,0.469471562786,0.8829475928589999,0.0,0.0,-0.0523598775598,0.0,0.0,0.0
539,4_23,4,23,0.0,0.0,0.467929814261,0.883765630089,0.0,0.0,-0.0268780704807,0.0,0.0,0.0
540,4_24,4,24,0.0,0.0,0.46931745221,0.8830295176559999,0.0,0.0,0.07016223593019999,0.0,0.0,0.0
541,4_25,4,25,0.0,0.0,0.469702701834,0.8828246552339999,0.0,0.0,0.0418879020479,0.0,0.0,0.0
542,4_26,4,26,0.0,0.0,0.46916332733800004,0.883111415554,0.0,0.0,-0.0631809189222,0.0,0.0,0.0
543,4_27,4,27,0.0,0.0,0.468161167523,0.883643096065,0.0,0.0,0.0286233997327,0.0,0.0,0.0
544,4_28,4,28,0.0,0.0,0.46862377777099995,0.883397846334,0.0,0.0,0.0582939970166,0.0,0.0,0.0
545,4_29,4,29,0.0,0.0,0.469856776649,0.882742663202,0.0,0.0,0.035604716740699996,0.0,0.0,0.0
546,4_30,4,30,0.0,0.0,0.46862377777099995,0.883397846334,0.0,0.0,-0.07487462491060001,0.0,0.0,0.0
547,4_31,4,31,0.0,0.0,0.468161167523,0.883643096065,0.0,0.0,-0.0403171057211,0.0,0.0,0.0
548,4_32,4,32,0.0,0.0,0.468084053333,0.883683947469,0.0,0.0,-0.00226892802759,0.0,0.0,0.0
549,4_33,4,33,0.0,0.0,0.469086259542,0.883152354415,0.0,0.0,0.0628318530718,0.0,0.0,0.0
550,4_34,4,34,0.0,0.0,0.469702701834,0.8828246552339999,0.0,0.0,-0.0191986217719,0.0,0.0,0.0
551,4_35,4,35,0.0,0.0,0.467775560934,0.8838472857870001,0.0,0.0,-0.048171087355,0.0,0.0,0.0
552,4_36,4,36,0.0,0.0,0.46862377777099995,0.883397846334,0.0,0.0,0.06928957130419999,0.0,0.0,0.0
553,4_37,4,37,0.0,0.0,0.469702701834,0.8828246552339999,0.0,0.0,-0.00628318530718,0.0,0.0,0.0
554,4_38,4,38,0.0,0.0,0.46931745221,0.8830295176559999,0.0,0.0,-0.0553269372882,0.0,0.0,0.0
555,4_39,4,39,0.0,0.0,0.467852689379,0.883806461303,0.0,0.0,-0.0232128790515,0.0,0.0,0.0
556,4_40,4,40,0.0,0.0,0.46916332733800004,0.883111415554,0.0,0.0,0.0635299847726,0.0,0.0,0.0
557,4_41,4,41,0.0,0.0,0.469548612711,0.882906620374,0.0,0.0,-0.0359537825911,0.0,0.0,0.0
558,4_42,4,42,0.0,0.0,0.467775560934,0.8838472857870001,0.0,0.0,-0.0254818070791,0.0,0.0,0.0
559,4_43,4,43,0.0,0.0,0.46885503472400003,0.883275130644,0.0,0.0,0.0640535835482,0.0,0.0,0.0
560,4_44,4,44,0.0,0.0,0.46931745221,0.8830295176559999,0.0,0.0,-0.03473205211469999,0.0,0.0,0.0
561,4_45,4,45,0.0,0.0,0.467621293358,0.8839289145620001,0.0,0.0,-0.0535816080362,0.0,0.0,0.0
562,4_46,4,46,0.0,0.0,0.468469588624,0.883479623158,0.0,0.0,0.0600393262686,0.0,0.0,0.0
563,4_47,4,47,0.0,0.0,0.469394509285,0.882988558619,0.0,0.0,-0.0013962634016,0.0,0.0,0.0
564,4_48,4,48,0.0,0.0,0.46877795264300004,0.883316042601,0.0,0.0,-0.0703367688554,0.0,0.0,0.0
565,4_49,4,49,0.0,0.0,0.46769842892700003,0.88388810354,0.0,0.0,0.006981317007979999,0.0,0.0,0.0
566,4_50,4,50,0.0,0.0,0.469009188174,0.883193286551,0.0,0.0,0.0401425727959,0.0,0.0,0.0
567,4_51,4,51,0.0,0.0,0.46924039156099995,0.883070469967,0.0,0.0,0.0188495559215,0.0,0.0,0.0
568,4_52,4,52,0.0,0.0,0.468161167523,0.883643096065,0.0,0.0,-0.0762708883122,0.0,0.0,0.0
569,4_53,4,53,0.0,0.0,0.467621293358,0.8839289145620001,0.0,0.0,-0.0553269372882,0.0,0.0,0.0
570,4_54,4,54,0.0,0.0,0.468238278148,0.883602237931,0.0,0.0,0.0671951762018,0.0,0.0,0.0
571,4_55,4,55,0.0,0.0,0.46877795264300004,0.883316042601,0.0,0.0,0.058992128717400005,0.0,0.0,0.0
572,4_56,4,56,0.0,0.0,0.46870086699100005,0.8833569478309999,0.0,0.0,-0.0528834763354,0.0,0.0,0.0
573,4_57,4,57,0.0,0.0,0.467544154228,0.8839697188519999,0.0,0.0,-0.00279252680319,0.0,0.0,0.0
574,4_58,4,58,0.0,0.0,0.467775560934,0.8838472857870001,0.0,0.0,0.0438077642251,0.0,0.0,0.0
575,4_59,4,59,0.0,0.0,0.469009188174,0.883193286551,0.0,0.0,0.0291469985083,0.0,0.0,0.0
576,4_60,4,60,0.0,0.0,0.46916332733800004,0.883111415554,0.0,0.0,0.008901179185170001,0.0,0.0,0.0
577,4_61,4,61,0.0,0.0,0.467852689379,0.883806461303,0.0,0.0,-0.050789081233,0.0,0.0,0.0
578,4_62,4,62,0.0,0.0,0.46831538520599997,0.883561373069,0.0,0.0,0.0504400153826,0.0,0.0,0.0
579,4_63,4,63,0.0,0.0,0.469086259542,0.883152354415,0.0,0.0,0.00314159265359,0.0,0.0,0.0
580,4_64,4,64,0.0,0.0,0.468161167523,0.883643096065,0.0,0.0,-0.0605629250442,0.0,0.0,0.0
581,4_65,4,65,0.0,0.0,0.468238278148,0.883602237931,0.0,0.0,0.041015237421900004,0.0,0.0,0.0
582,4_66,4,66,0.0,0.0,0.468932113235,0.8832342119600001,0.0,0.0,0.021816615649900003,0.0,0.0,0.0
583,4_67,4,67,0.0,0.0,0.468084053333,0.883683947469,0.0,0.0,-0.0509636141582,0.0,0.0,0.0
584,4_68,4,68,0.0,0.0,0.468084053333,0.883683947469,0.0,0.0,0.032637657012299995,0.0,0.0,0.0
585,4_69,4,69,0.0,0.0,0.46885503472400003,0.883275130644,0.0,0.0,0.0157079632679,0.0,0.0,0.0
586,4_70,4,70,0.0,0.0,0.46831538520599997,0.883561373069,0.0,0.0,-0.0466002910282,0.0,0.0,0.0
587,4_71,4,71,0.0,0.0,0.468084053333,0.883683947469,0.0,0.0,0.0268780704807,0.0,0.0,0.0
588,4_72,4,72,0.0,0.0,0.46831538520599997,0.883561373069,0.0,0.0,0.0293215314335,0.0,0.0,0.0
589,4_73,4,73,0.0,0.0,0.468932113235,0.8832342119600001,0.0,0.0,0.0205948851735,0.0,0.0,0.0
590,4_74,4,74,0.0,0.0,0.468084053333,0.883683947469,0.0,0.0,-0.051661745859000005,0.0,0.0,0.0
591,4_75,4,75,0.0,0.0,0.467775560934,0.8838472857870001,0.0,0.0,-0.0219911485751,0.0,0.0,0.0
592,4_76,4,76,0.0,0.0,0.468161167523,0.883643096065,0.0,0.0,0.0303687289847,0.0,0.0,0.0
593,4_77,4,77,0.0,0.0,0.468932113235,0.8832342119600001,0.0,0.0,0.008901179185170001,0.0,0.0,0.0
594,4_78,4,78,0.0,0.0,0.46877795264300004,0.883316042601,0.0,0.0,-0.0287979326579,0.0,0.0,0.0
595,4_79,4,79,0.0,0.0,0.467929814261,0.883765630089,0.0,0.0,0.00750491578358,0.0,0.0,0.0
596,4_80,4,80,0.0,0.0,0.46870086699100005,0.8833569478309999,0.0,0.0,0.030717794835099996,0.0,0.0,0.0
597,4_81,4,81,0.0,0.0,0.46885503472400003,0.883275130644,0.0,0.0,0.015358897417600001,0.0,0.0,0.0
598,4_82,4,82,0.0,0.0,0.468469588624,0.883479623158,0.0,0.0,-0.042236967898300004,0.0,0.0,0.0
599,4_83,4,83,0.0,0.0,0.468084053333,0.883683947469,0.0,0.0,-0.0427605666739,0.0,0.0,0.0
600,4_84,4,84,0.0,0.0,0.468238278148,0.883602237931,0.0,0.0,0.0331612557879,0.0,0.0,0.0
601,4_85,4,85,0.0,0.0,0.468932113235,0.8832342119600001,0.0,0.0,0.0136135681656,0.0,0.0,0.0
602,4_86,4,86,0.0,0.0,0.467852689379,0.883806461303,0.0,0.0,-0.047996554429800005,0.0,0.0,0.0
603,4_87,4,87,0.0,0.0,0.467929814261,0.883765630089,0.0,0.0,0.0324631240871,0.0,0.0,0.0
604,4_88,4,88,0.0,0.0,0.469009188174,0.883193286551,0.0,0.0,0.0198967534727,0.0,0.0,0.0
605,4_89,4,89,0.0,0.0,0.468238278148,0.883602237931,0.0,0.0,-0.0532325421858,0.0,0.0,0.0
606,4_90,4,90,0.0,0.0,0.467852689379,0.883806461303,0.0,0.0,0.034906585039900004,0.0,0.0,0.0
607,4_91,4,91,0.0,0.0,0.46885503472400003,0.883275130644,0.0,0.0,0.0312413936107,0.0,0.0,0.0
608,4_92,4,92,0.0,0.0,0.468238278148,0.883602237931,0.0,0.0,-0.0654498469498,0.0,0.0,0.0
609,4_93,4,93,0.0,0.0,0.467544154228,0.8839697188519999,0.0,0.0,0.0212930168743,0.0,0.0,0.0
610,4_94,4,94,0.0,0.0,0.46877795264300004,0.883316042601,0.0,0.0,0.036826447217099996,0.0,0.0,0.0
611,4_95,4,95,0.0,0.0,0.468546684981,0.8834387381100001,0.0,0.0,-0.0506145483078,0.0,0.0,0.0
612,4_96,4,96,0.0,0.0,0.467389865287,0.884051307237,0.0,0.0,0.009250245035569999,0.0,0.0,0.0
613,4_97,4,97,0.0,0.0,0.467621293358,0.8839289145620001,0.0,0.0,0.041713369122699996,0.0,0.0,0.0
614,4_98,4,98,0.0,0.0,0.468932113235,0.8832342119600001,0.0,0.0,0.0329867228627,0.0,0.0,0.0
615,4_99,4,99,0.0,0.0,0.46800693557899997,0.8837247921439999,0.0,0.0,-0.0787143492649,0.0,0.0,0.0
616,4_100,4,100,0.0,0.0,0.467467011537,0.884010516411,0.0,0.0,-0.063006385997,0.0,0.0,0.0
617,4_101,4,101,0.0,0.0,0.467929814261,0.883765630089,0.0,0.0,0.06143558967019999,0.0,0.0,0.0
618,4_102,4,102,0.0,0.0,0.46916332733800004,0.883111415554,0.0,0.0,0.008901179185170001,0.0,0.0,0.0
619,4_103,4,103,0.0,0.0,0.469009188174,0.883193286551,0.0,0.0,-0.0237364778271,0.0,0.0,0.0
620,4_104,4,104,0.0,0.0,0.467389865287,0.884051307237,0.0,0.0,-0.0301941960595,0.0,0.0,0.0
621,4_105,4,105,0.0,0.0,0.468392488698,0.883520501477,0.0,0.0,0.0553269372882,0.0,0.0,0.0
622,4_106,4,106,0.0,0.0,0.46877795264300004,0.883316042601,0.0,0.0,0.0357792496659,0.0,0.0,0.0
623,4_107,4,107,0.0,0.0,0.46870086699100005,0.8833569478309999,0.0,0.0,-0.046774823953400005,0.0,0.0,0.0
624,4_108,4,108,0.0,0.0,0.468161167523,0.883643096065,0.0,0.0,-0.06946410422939998,0.0,0.0,0.0
625,4_109,4,109,0.0,0.0,0.46800693557899997,0.8837247921439999,0.0,0.0,0.049916416607,0.0,0.0,0.0
626,4_110,4,110,0.0,0.0,0.469009188174,0.883193286551,0.0,0.0,0.0301941960595,0.0,0.0,0.0
627,4_111,4,111,0.0,0.0,0.46831538520599997,0.883561373069,0.0,0.0,-0.069115038379,0.0,0.0,0.0
628,4_112,4,112,0.0,0.0,0.46769842892700003,0.88388810354,0.0,0.0,0.026005405854700004,0.0,0.0,0.0
629,4_113,4,113,0.0,0.0,0.468932113235,0.8832342119600001,0.0,0.0,0.0303687289847,0.0,0.0,0.0
630,4_114,4,114,0.0,0.0,0.468469588624,0.883479623158,0.0,0.0,-0.07051130178060001,0.0,0.0,0.0
631,4_115,4,115,0.0,0.0,0.467467011537,0.884010516411,0.0,0.0,0.0277507351067,0.0,0.0,0.0
632,4_116,4,116,0.0,0.0,0.46862377777099995,0.883397846334,0.0,0.0,0.0432841654495,0.0,0.0,0.0
633,4_117,4,117,0.0,0.0,0.46862377777099995,0.883397846334,0.0,0.0,-0.0392699081699,0.0,0.0,0.0
634,4_118,4,118,0.0,0.0,0.467775560934,0.8838472857870001,0.0,0.0,0.007679448708779999,0.0,0.0,0.0
635,4_119,4,119,0.0,0.0,0.468932113235,0.8832342119600001,0.0,0.0,0.0403171057211,0.0,0.0,0.0
636,4_120,4,120,0.0,0.0,0.469086259542,0.883152354415,0.0,0.0,0.0162315620435,0.0,0.0,0.0
637,4_121,4,121,0.0,0.0,0.46800693557899997,0.8837247921439999,0.0,0.0,-0.0685914396034,0.0,0.0,0.0
638,4_122,4,122,0.0,0.0,0.467775560934,0.8838472857870001,0.0,0.0,0.0333357887131,0.0,0.0,0.0
639,4_123,4,123,0.0,0.0,0.468161167523,0.883643096065,0.0,0.0,0.0452040276267,0.0,0.0,0.0
640,4_124,4,124,0.0,0.0,0.469086259542,0.883152354415,0.0,0.0,0.009250245035569999,0.0,0.0,0.0
641,4_125,4,125,0.0,0.0,0.46870086699100005,0.8833569478309999,0.0,0.0,-0.046774823953400005,0.0,0.0,0.0
642,4_126,4,126,0.0,0.0,0.46769842892700003,0.88388810354,0.0,0.0,-0.008028514559169999,0.0,0.0,0.0
643,4_127,4,127,0.0,0.0,0.467852689379,0.883806461303,0.0,0.0,0.0291469985083,0.0,0.0,0.0
644,4_128,4,128,0.0,0.0,0.468932113235,0.8832342119600001,0.0,0.0,0.028274333882299996,0.0,0.0,0.0
645,5_0,5,0,0.0,0.0,0.469086259542,0.883152354415,0.0,0.0,0.0134390352404,0.0,0.0,0.0
646,5_1,5,1,0.0,0.0,0.468084053333,0.883683947469,0.0,0.0,-0.0619591884458,0.0,0.0,0.0
647,5_2,5,2,0.0,0.0,0.468084053333,0.883683947469,0.0,0.0,0.045378560551899996,0.0,0.0,0.0
648,5_3,5,3,0.0,0.0,0.46885503472400003,0.883275130644,0.0,0.0,0.008028514559169999,0.0,0.0,0.0
649,5_4,5,4,0.0,0.0,0.467852689379,0.883806461303,0.0,0.0,-0.0602138591938,0.0,0.0,0.0
650,5_5,5,5,0.0,0.0,0.467775560934,0.8838472857870001,0.0,0.0,0.042935099599099996,0.0,0.0,0.0
651,5_6,5,6,0.0,0.0,0.46870086699100005,0.8833569478309999,0.0,0.0,0.021118483949099997,0.0,0.0,0.0
652,5_7,5,7,0.0,0.0,0.467852689379,0.883806461303,0.0,0.0,-0.0513126800086,0.0,0.0,0.0
653,5_8,5,8,0.0,0.0,0.46769842892700003,0.88388810354,0.0,0.0,0.036302848441499995,0.0,0.0,0.0
654,5_9,5,9,0.0,0.0,0.46870086699100005,0.8833569478309999,0.0,0.0,0.014835298642,0.0,0.0,0.0
655,5_10,5,10,0.0,0.0,0.46800693557899997,0.8837247921439999,0.0,0.0,-0.054105206811800005,0.0,0.0,0.0
656,5_11,5,11,0.0,0.0,0.46769842892700003,0.88388810354,0.0,0.0,0.04084070449669999,0.0,0.0,0.0
657,5_12,5,12,0.0,0.0,0.46877795264300004,0.883316042601,0.0,0.0,0.0256563400043,0.0,0.0,0.0
658,5_13,5,13,0.0,0.0,0.467544154228,0.8839697188519999,0.0,0.0,-0.013089969390000001,0.0,0.0,0.0
659,5_14,5,14,0.0,0.0,0.46831538520599997,0.883561373069,0.0,0.0,0.0431096325243,0.0,0.0,0.0
660,5_15,5,15,0.0,0.0,0.468546684981,0.8834387381100001,0.0,0.0,-0.028448866807499997,0.0,0.0,0.0
661,5_16,5,16,0.0,0.0,0.468238278148,0.883602237931,0.0,0.0,-0.045378560551899996,0.0,0.0,0.0
662,5_17,5,17,0.0,0.0,0.467621293358,0.8839289145620001,0.0,0.0,0.020943951023900002,0.0,0.0,0.0
663,5_18,5,18,0.0,0.0,0.467929814261,0.883765630089,0.0,0.0,0.0441568300755,0.0,0.0,0.0
664,5_19,5,19,0.0,0.0,0.46877795264300004,0.883316042601,0.0,0.0,0.008028514559169999,0.0,0.0,0.0
665,5_20,5,20,0.0,0.0,0.46870086699100005,0.8833569478309999,0.0,0.0,-0.015358897417600001,0.0,0.0,0.0
666,5_21,5,21,0.0,0.0,0.467621293358,0.8839289145620001,0.0,0.0,-0.0321140582367,0.0,0.0,0.0
667,5_22,5,22,0.0,0.0,0.467544154228,0.8839697188519999,0.0,0.0,-0.00157079632679,0.0,0.0,0.0
668,5_23,5,23,0.0,0.0,0.468392488698,0.883520501477,0.0,0.0,0.0190240888467,0.0,0.0,0.0
669,5_24,5,24,0.0,0.0,0.46831538520599997,0.883561373069,0.0,0.0,-0.0240855436775,0.0,0.0,0.0
670,5_25,5,25,0.0,0.0,0.46800693557899997,0.8837247921439999,0.0,0.0,-0.037873644768300005,0.0,0.0,0.0
671,5_26,5,26,0.0,0.0,0.46769842892700003,0.88388810354,0.0,0.0,0.0212930168743,0.0,0.0,0.0
672,5_27,5,27,0.0,0.0,0.46800693557899997,0.8837247921439999,0.0,0.0,0.039968039870699995,0.0,0.0,0.0
673,5_28,5,28,0.0,0.0,0.468546684981,0.8834387381100001,0.0,0.0,-0.00488692190558,0.0,0.0,0.0
674,5_29,5,29,0.0,0.0,0.467852689379,0.883806461303,0.0,0.0,-0.032637657012299995,0.0,0.0,0.0
675,5_30,5,30,0.0,0.0,0.468161167523,0.883643096065,0.0,0.0,0.036826447217099996,0.0,0.0,0.0
676,5_31,5,31,0.0,0.0,0.46862377777099995,0.883397846334,0.0,0.0,0.0012217304764,0.0,0.0,0.0
677,5_32,5,32,0.0,0.0,0.467852689379,0.883806461303,0.0,0.0,-0.0434586983747,0.0,0.0,0.0
678,5_33,5,33,0.0,0.0,0.46769842892700003,0.88388810354,0.0,0.0,0.0310668606855,0.0,0.0,0.0
679,5_34,5,34,0.0,0.0,0.468546684981,0.8834387381100001,0.0,0.0,0.0144862327916,0.0,0.0,0.0
680,5_35,5,35,0.0,0.0,0.468161167523,0.883643096065,0.0,0.0,-0.039793506945500004,0.0,0.0,0.0
681,5_36,5,36,0.0,0.0,0.467852689379,0.883806461303,0.0,0.0,0.0268780704807,0.0,0.0,0.0
682,5_37,5,37,0.0,0.0,0.468469588624,0.883479623158,0.0,0.0,0.009075712110370001,0.0,0.0,0.0
683,5_38,5,38,0.0,0.0,0.468161167523,0.883643096065,0.0,0.0,-0.0357792496659,0.0,0.0,0.0
684,5_39,5,39,0.0,0.0,0.467775560934,0.8838472857870001,0.0,0.0,-0.04258603374869999,0.0,0.0,0.0
685,5_40,5,40,0.0,0.0,0.467852689379,0.883806461303,0.0,0.0,0.030892327760299997,0.0,0.0,0.0
686,5_41,5,41,0.0,0.0,0.468469588624,0.883479623158,0.0,0.0,0.013089969390000001,0.0,0.0,0.0
687,5_42,5,42,0.0,0.0,0.468469588624,0.883479623158,0.0,0.0,-0.010646508437200001,0.0,0.0,0.0
688,5_43,5,43,0.0,0.0,0.467389865287,0.884051307237,0.0,0.0,-0.0333357887131,0.0,0.0,0.0
689,5_44,5,44,0.0,0.0,0.467389865287,0.884051307237,0.0,0.0,0.0134390352404,0.0,0.0,0.0
690,5_45,5,45,0.0,0.0,0.468161167523,0.883643096065,0.0,0.0,0.032637657012299995,0.0,0.0,0.0
691,5_46,5,46,0.0,0.0,0.468392488698,0.883520501477,0.0,0.0,0.0298451302091,0.0,0.0,0.0
692,5_47,5,47,0.0,0.0,0.467852689379,0.883806461303,0.0,0.0,-0.0631809189222,0.0,0.0,0.0
693,5_48,5,48,0.0,0.0,0.467467011537,0.884010516411,0.0,0.0,-0.046251225177800004,0.0,0.0,0.0
694,5_49,5,49,0.0,0.0,0.46769842892700003,0.88388810354,0.0,0.0,0.035081117965099995,0.0,0.0,0.0
695,5_50,5,50,0.0,0.0,0.46862377777099995,0.883397846334,0.0,0.0,0.0242600766027,0.0,0.0,0.0
696,5_51,5,51,0.0,0.0,0.467467011537,0.884010516411,0.0,0.0,-0.057770398241,0.0,0.0,0.0
697,5_52,5,52,0.0,0.0,0.467621293358,0.8839289145620001,0.0,0.0,0.0403171057211,0.0,0.0,0.0
698,5_53,5,53,0.0,0.0,0.46870086699100005,0.8833569478309999,0.0,0.0,0.0225147473507,0.0,0.0,0.0
699,5_54,5,54,0.0,0.0,0.467852689379,0.883806461303,0.0,0.0,-0.0666715774262,0.0,0.0,0.0
700,5_55,5,55,0.0,0.0,0.46769842892700003,0.88388810354,0.0,0.0,0.0401425727959,0.0,0.0,0.0
701,5_56,5,56,0.0,0.0,0.46862377777099995,0.883397846334,0.0,0.0,0.0331612557879,0.0,0.0,0.0
702,5_57,5,57,0.0,0.0,0.46769842892700003,0.88388810354,0.0,0.0,-0.06143558967019999,0.0,0.0,0.0
703,5_58,5,58,0.0,0.0,0.467544154228,0.8839697188519999,0.0,0.0,0.0354301838155,0.0,0.0,0.0
704,5_59,5,59,0.0,0.0,0.46870086699100005,0.8833569478309999,0.0,0.0,0.03403392041390001,0.0,0.0,0.0
705,5_60,5,60,0.0,0.0,0.46885503472400003,0.883275130644,0.0,0.0,0.006632251157579999,0.0,0.0,0.0
706,5_61,5,61,0.0,0.0,0.46769842892700003,0.88388810354,0.0,0.0,-0.0575958653158,0.0,0.0,0.0
707,5_62,5,62,0.0,0.0,0.467852689379,0.883806461303,0.0,0.0,0.0436332312999,0.0,0.0,0.0
708,5_63,5,63,0.0,0.0,0.468161167523,0.883643096065,0.0,0.0,0.035081117965099995,0.0,0.0,0.0
709,5_64,5,64,0.0,0.0,0.46877795264300004,0.883316042601,0.0,0.0,0.00750491578358,0.0,0.0,0.0
710,5_65,5,65,0.0,0.0,0.468392488698,0.883520501477,0.0,0.0,-0.045553093477099994,0.0,0.0,0.0
711,5_66,5,66,0.0,0.0,0.467544154228,0.8839697188519999,0.0,0.0,0.00226892802759,0.0,0.0,0.0
712,5_67,5,67,0.0,0.0,0.467775560934,0.8838472857870001,0.0,0.0,0.0280998009571,0.0,0.0,0.0
713,5_68,5,68,0.0,0.0,0.46870086699100005,0.8833569478309999,0.0,0.0,0.0186750229963,0.0,0.0,0.0
714,5_69,5,69,0.0,0.0,0.46877795264300004,0.883316042601,0.0,0.0,-0.00471238898038,0.0,0.0,0.0
715,5_70,5,70,0.0,0.0,0.467775560934,0.8838472857870001,0.0,0.0,-0.0493928178314,0.0,0.0,0.0
716,5_71,5,71,0.0,0.0,0.468161167523,0.883643096065,0.0,0.0,0.0504400153826,0.0,0.0,0.0
717,5_72,5,72,0.0,0.0,0.46885503472400003,0.883275130644,0.0,0.0,0.0109955742876,0.0,0.0,0.0
718,5_73,5,73,0.0,0.0,0.467621293358,0.8839289145620001,0.0,0.0,-0.046774823953400005,0.0,0.0,0.0
719,5_74,5,74,0.0,0.0,0.467929814261,0.883765630089,0.0,0.0,0.0387463093943,0.0,0.0,0.0
720,5_75,5,75,0.0,0.0,0.46877795264300004,0.883316042601,0.0,0.0,-0.000872664625997,0.0,0.0,0.0
721,5_76,5,76,0.0,0.0,0.46769842892700003,0.88388810354,0.0,0.0,-0.042935099599099996,0.0,0.0,0.0
722,5_77,5,77,0.0,0.0,0.46800693557899997,0.8837247921439999,0.0,0.0,0.0478220215046,0.0,0.0,0.0
723,5_78,5,78,0.0,0.0,0.46877795264300004,0.883316042601,0.0,0.0,0.000872664625997,0.0,0.0,0.0
724,5_79,5,79,0.0,0.0,0.467621293358,0.8839289145620001,0.0,0.0,-0.054279739737,0.0,0.0,0.0
725,5_80,5,80,0.0,0.0,0.467775560934,0.8838472857870001,0.0,0.0,0.042935099599099996,0.0,0.0,0.0
726,5_81,5,81,0.0,0.0,0.46862377777099995,0.883397846334,0.0,0.0,0.00715584993318,0.0,0.0,0.0
727,5_82,5,82,0.0,0.0,0.46769842892700003,0.88388810354,0.0,0.0,-0.0432841654495,0.0,0.0,0.0
728,5_83,5,83,0.0,0.0,0.467467011537,0.884010516411,0.0,0.0,-0.024783675378299997,0.0,0.0,0.0
729,5_84,5,84,0.0,0.0,0.468084053333,0.883683947469,0.0,0.0,0.0434586983747,0.0,0.0,0.0
730,5_85,5,85,0.0,0.0,0.468546684981,0.8834387381100001,0.0,0.0,-0.014660765716799999,0.0,0.0,0.0
731,5_86,5,86,0.0,0.0,0.468238278148,0.883602237931,0.0,0.0,-0.0432841654495,0.0,0.0,0.0
732,5_87,5,87,0.0,0.0,0.46731271547700004,0.8840920913310001,0.0,0.0,-0.0033161255787899995,0.0,0.0,0.0
733,5_88,5,88,0.0,0.0,0.468392488698,0.883520501477,0.0,0.0,0.03403392041390001,0.0,0.0,0.0
734,5_89,5,89,0.0,0.0,0.468546684981,0.8834387381100001,0.0,0.0,0.0160570291183,0.0,0.0,0.0
735,5_90,5,90,0.0,0.0,0.467544154228,0.8839697188519999,0.0,0.0,-0.0635299847726,0.0,0.0,0.0
736,5_91,5,91,0.0,0.0,0.467158405181,0.8841736393200001,0.0,0.0,-0.0387463093943,0.0,0.0,0.0
737,5_92,5,92,0.0,0.0,0.46769842892700003,0.88388810354,0.0,0.0,0.0431096325243,0.0,0.0,0.0
738,5_93,5,93,0.0,0.0,0.468392488698,0.883520501477,0.0,0.0,0.00488692190558,0.0,0.0,0.0
739,5_94,5,94,0.0,0.0,0.468238278148,0.883602237931,0.0,0.0,-0.0267035375555,0.0,0.0,0.0
740,5_95,5,95,0.0,0.0,0.467235562108,0.884132868692,0.0,0.0,-0.015533430342700001,0.0,0.0,0.0
741,5_96,5,96,0.0,0.0,0.468161167523,0.883643096065,0.0,0.0,0.036826447217099996,0.0,0.0,0.0
742,5_97,5,97,0.0,0.0,0.46831538520599997,0.883561373069,0.0,0.0,-0.0239110107523,0.0,0.0,0.0
743,5_98,5,98,0.0,0.0,0.467081244696,0.884214403215,0.0,0.0,-0.010821041362399999,0.0,0.0,0.0
744,5_99,5,99,0.0,0.0,0.468084053333,0.883683947469,0.0,0.0,0.036128315516300004,0.0,0.0,0.0
745,5_100,5,100,0.0,0.0,0.46831538520599997,0.883561373069,0.0,0.0,-0.0176278254451,0.0,0.0,0.0
746,5_101,5,101,0.0,0.0,0.467158405181,0.8841736393200001,0.0,0.0,-0.0020943951023900003,0.0,0.0,0.0
747,5_102,5,102,0.0,0.0,0.467929814261,0.883765630089,0.0,0.0,0.035081117965099995,0.0,0.0,0.0
748,5_103,5,103,0.0,0.0,0.468392488698,0.883520501477,0.0,0.0,-0.0136135681656,0.0,0.0,0.0
749,5_104,5,104,0.0,0.0,0.46731271547700004,0.8840920913310001,0.0,0.0,-0.027052603405900003,0.0,0.0,0.0
750,5_105,5,105,0.0,0.0,0.467929814261,0.883765630089,0.0,0.0,0.0357792496659,0.0,0.0,0.0
751,5_106,5,106,0.0,0.0,0.468469588624,0.883479623158,0.0,0.0,0.00820304748437,0.0,0.0,0.0
752,5_107,5,107,0.0,0.0,0.467467011537,0.884010516411,0.0,0.0,-0.0403171057211,0.0,0.0,0.0
753,5_108,5,108,0.0,0.0,0.467467011537,0.884010516411,0.0,0.0,0.00628318530718,0.0,0.0,0.0
754,5_109,5,109,0.0,0.0,0.46800693557899997,0.8837247921439999,0.0,0.0,0.0197222205475,0.0,0.0,0.0
755,5_110,5,110,0.0,0.0,0.468238278148,0.883602237931,0.0,0.0,-0.0191986217719,0.0,0.0,0.0
756,5_111,5,111,0.0,0.0,0.467929814261,0.883765630089,0.0,0.0,-0.0438077642251,0.0,0.0,0.0
757,5_112,5,112,0.0,0.0,0.467544154228,0.8839697188519999,0.0,0.0,0.014137166941200001,0.0,0.0,0.0
758,5_113,5,113,0.0,0.0,0.467852689379,0.883806461303,0.0,0.0,0.024783675378299997,0.0,0.0,0.0
759,5_114,5,114,0.0,0.0,0.46831538520599997,0.883561373069,0.0,0.0,0.00837758040957,0.0,0.0,0.0
760,5_115,5,115,0.0,0.0,0.46831538520599997,0.883561373069,0.0,0.0,-0.005759586531579999,0.0,0.0,0.0
761,5_116,5,116,0.0,0.0,0.467389865287,0.884051307237,0.0,0.0,-0.014311699866400001,0.0,0.0,0.0
762,5_117,5,117,0.0,0.0,0.467467011537,0.884010516411,0.0,0.0,0.014311699866400001,0.0,0.0,0.0
763,5_118,5,118,0.0,0.0,0.46800693557899997,0.8837247921439999,0.0,0.0,0.0242600766027,0.0,0.0,0.0
764,5_119,5,119,0.0,0.0,0.46800693557899997,0.8837247921439999,0.0,0.0,-0.0287979326579,0.0,0.0,0.0
765,5_120,5,120,0.0,0.0,0.46731271547700004,0.8840920913310001,0.0,0.0,-0.012391837689200002,0.0,0.0,0.0
766,5_121,5,121,0.0,0.0,0.467852689379,0.883806461303,0.0,0.0,0.0319395253115,0.0,0.0,0.0
767,5_122,5,122,0.0,0.0,0.468084053333,0.883683947469,0.0,0.0,-0.0216420827247,0.0,0.0,0.0
768,5_123,5,123,0.0,0.0,0.467389865287,0.884051307237,0.0,0.0,-0.00820304748437,0.0,0.0,0.0
769,5_124,5,124,0.0,0.0,0.467929814261,0.883765630089,0.0,0.0,0.0219911485751,0.0,0.0,0.0
770,5_125,5,125,0.0,0.0,0.468161167523,0.883643096065,0.0,0.0,-0.0019198621771900001,0.0,0.0,0.0
771,5_126,5,126,0.0,0.0,0.467467011537,0.884010516411,0.0,0.0,-0.013089969390000001,0.0,0.0,0.0
772,5_127,5,127,0.0,0.0,0.467929814261,0.883765630089,0.0,0.0,0.0291469985083,0.0,0.0,0.0
773,5_128,5,128,0.0,0.0,0.468238278148,0.883602237931,0.0,0.0,-0.00994837673637,0.0,0.0,0.0
774,6_0,6,0,0.0,0.0,0.46731271547700004,0.8840920913310001,0.0,0.0,-0.030892327760299997,0.0,0.0,0.0
775,6_1,6,1,0.0,0.0,0.467929814261,0.883765630089,0.0,0.0,0.0401425727959,0.0,0.0,0.0
776,6_2,6,2,0.0,0.0,0.468161167523,0.883643096065,0.0,0.0,0.0280998009571,0.0,0.0,0.0
777,6_3,6,3,0.0,0.0,0.468238278148,0.883602237931,0.0,0.0,-0.015533430342700001,0.0,0.0,0.0
778,6_4,6,4,0.0,0.0,0.467389865287,0.884051307237,0.0,0.0,-0.0019198621771900001,0.0,0.0,0.0
779,6_5,6,5,0.0,0.0,0.467544154228,0.8839697188519999,0.0,0.0,0.0301941960595,0.0,0.0,0.0
780,6_6,6,6,0.0,0.0,0.468546684981,0.8834387381100001,0.0,0.0,0.0324631240871,0.0,0.0,0.0
781,6_7,6,7,0.0,0.0,0.46870086699100005,0.8833569478309999,0.0,0.0,-0.005410520681180001,0.0,0.0,0.0
782,6_8,6,8,0.0,0.0,0.46769842892700003,0.88388810354,0.0,0.0,-0.0504400153826,0.0,0.0,0.0
783,6_9,6,9,0.0,0.0,0.467389865287,0.884051307237,0.0,0.0,-0.0293215314335,0.0,0.0,0.0
784,6_10,6,10,0.0,0.0,0.46831538520599997,0.883561373069,0.0,0.0,0.0359537825911,0.0,0.0,0.0
785,6_11,6,11,0.0,0.0,0.468546684981,0.8834387381100001,0.0,0.0,0.026354471705099997,0.0,0.0,0.0
786,6_12,6,12,0.0,0.0,0.468392488698,0.883520501477,0.0,0.0,-0.046774823953400005,0.0,0.0,0.0
787,6_13,6,13,0.0,0.0,0.46731271547700004,0.8840920913310001,0.0,0.0,0.013788101090799998,0.0,0.0,0.0
788,6_14,6,14,0.0,0.0,0.468469588624,0.883479623158,0.0,0.0,0.04712388980380001,0.0,0.0,0.0
789,6_15,6,15,0.0,0.0,0.468392488698,0.883520501477,0.0,0.0,-0.05654866776459999,0.0,0.0,0.0
790,6_16,6,16,0.0,0.0,0.467235562108,0.884132868692,0.0,0.0,0.00471238898038,0.0,0.0,0.0
791,6_17,6,17,0.0,0.0,0.468546684981,0.8834387381100001,0.0,0.0,0.04502949470150001,0.0,0.0,0.0
792,6_18,6,18,0.0,0.0,0.46870086699100005,0.8833569478309999,0.0,0.0,-0.042411500823499995,0.0,0.0,0.0
793,6_19,6,19,0.0,0.0,0.467467011537,0.884010516411,0.0,0.0,-0.00680678408278,0.0,0.0,0.0
794,6_20,6,20,0.0,0.0,0.468546684981,0.8834387381100001,0.0,0.0,0.0342084533391,0.0,0.0,0.0
795,6_21,6,21,0.0,0.0,0.468932113235,0.8832342119600001,0.0,0.0,-0.017278759594700002,0.0,0.0,0.0
796,6_22,6,22,0.0,0.0,0.467544154228,0.8839697188519999,0.0,0.0,-0.006632251157579999,0.0,0.0,0.0
797,6_23,6,23,0.0,0.0,0.46831538520599997,0.883561373069,0.0,0.0,0.039968039870699995,0.0,0.0,0.0
798,6_24,6,24,0.0,0.0,0.468932113235,0.8832342119600001,0.0,0.0,-0.0181514242207,0.0,0.0,0.0
799,6_25,6,25,0.0,0.0,0.468546684981,0.8834387381100001,0.0,0.0,-0.05707226654019999,0.0,0.0,0.0
800,6_26,6,26,0.0,0.0,0.467621293358,0.8839289145620001,0.0,0.0,0.006981317007979999,0.0,0.0,0.0
801,6_27,6,27,0.0,0.0,0.46862377777099995,0.883397846334,0.0,0.0,0.0359537825911,0.0,0.0,0.0
802,6_28,6,28,0.0,0.0,0.46885503472400003,0.883275130644,0.0,0.0,0.027052603405900003,0.0,0.0,0.0
803,6_29,6,29,0.0,0.0,0.468084053333,0.883683947469,0.0,0.0,-0.0766199541626,0.0,0.0,0.0
804,6_30,6,30,0.0,0.0,0.467467011537,0.884010516411,0.0,0.0,-0.0286233997327,0.0,0.0,0.0
805,6_31,6,31,0.0,0.0,0.468161167523,0.883643096065,0.0,0.0,0.044680428851100004,0.0,0.0,0.0
806,6_32,6,32,0.0,0.0,0.468546684981,0.8834387381100001,0.0,0.0,0.0478220215046,0.0,0.0,0.0
807,6_33,6,33,0.0,0.0,0.468932113235,0.8832342119600001,0.0,0.0,-0.035081117965099995,0.0,0.0,0.0
808,6_34,6,34,0.0,0.0,0.468392488698,0.883520501477,0.0,0.0,-0.0654498469498,0.0,0.0,0.0
809,6_35,6,35,0.0,0.0,0.467775560934,0.8838472857870001,0.0,0.0,0.0202458193231,0.0,0.0,0.0
810,6_36,6,36,0.0,0.0,0.468932113235,0.8832342119600001,0.0,0.0,0.0298451302091,0.0,0.0,0.0
811,6_37,6,37,0.0,0.0,0.469086259542,0.883152354415,0.0,0.0,0.00855211333477,0.0,0.0,0.0
812,6_38,6,38,0.0,0.0,0.467621293358,0.8839289145620001,0.0,0.0,-0.046425758103,0.0,0.0,0.0
813,6_39,6,39,0.0,0.0,0.467929814261,0.883765630089,0.0,0.0,0.045378560551899996,0.0,0.0,0.0
814,6_40,6,40,0.0,0.0,0.46877795264300004,0.883316042601,0.0,0.0,-0.0010471975512,0.0,0.0,0.0
815,6_41,6,41,0.0,0.0,0.46769842892700003,0.88388810354,0.0,0.0,-0.053407075111,0.0,0.0,0.0
816,6_42,6,42,0.0,0.0,0.46800693557899997,0.8837247921439999,0.0,0.0,0.041189770347099995,0.0,0.0,0.0
817,6_43,6,43,0.0,0.0,0.46831538520599997,0.883561373069,0.0,0.0,0.04206243497309999,0.0,0.0,0.0
818,6_44,6,44,0.0,0.0,0.46885503472400003,0.883275130644,0.0,0.0,-0.011868238913600001,0.0,0.0,0.0
819,6_45,6,45,0.0,0.0,0.46769842892700003,0.88388810354,0.0,0.0,-0.0202458193231,0.0,0.0,0.0
820,6_46,6,46,0.0,0.0,0.46831538520599997,0.883561373069,0.0,0.0,0.043982297150300005,0.0,0.0,0.0
821,6_47,6,47,0.0,0.0,0.46877795264300004,0.883316042601,0.0,0.0,-0.0212930168743,0.0,0.0,0.0
822,6_48,6,48,0.0,0.0,0.467544154228,0.8839697188519999,0.0,0.0,-0.0371755130675,0.0,0.0,0.0
823,6_49,6,49,0.0,0.0,0.467544154228,0.8839697188519999,0.0,0.0,0.017453292519900004,0.0,0.0,0.0
824,6_50,6,50,0.0,0.0,0.468469588624,0.883479623158,0.0,0.0,0.036128315516300004,0.0,0.0,0.0
825,6_51,6,51,0.0,0.0,0.468238278148,0.883602237931,0.0,0.0,-0.049916416607,0.0,0.0,0.0
826,6_52,6,52,0.0,0.0,0.467775560934,0.8838472857870001,0.0,0.0,-0.04921828490619999,0.0,0.0,0.0
827,6_53,6,53,0.0,0.0,0.46769842892700003,0.88388810354,0.0,0.0,0.0338593874887,0.0,0.0,0.0
828,6_54,6,54,0.0,0.0,0.468084053333,0.883683947469,0.0,0.0,0.0493928178314,0.0,0.0,0.0
829,6_55,6,55,0.0,0.0,0.46870086699100005,0.8833569478309999,0.0,0.0,-0.0198967534727,0.0,0.0,0.0
830,6_56,6,56,0.0,0.0,0.46831538520599997,0.883561373069,0.0,0.0,-0.04712388980380001,0.0,0.0,0.0
831,6_57,6,57,0.0,0.0,0.46731271547700004,0.8840920913310001,0.0,0.0,0.0012217304764,0.0,0.0,0.0
832,6_58,6,58,0.0,0.0,0.468392488698,0.883520501477,0.0,0.0,0.047298422729,0.0,0.0,0.0
833,6_59,6,59,0.0,0.0,0.46862377777099995,0.883397846334,0.0,0.0,0.0230383461263,0.0,0.0,0.0
834,6_60,6,60,0.0,0.0,0.46769842892700003,0.88388810354,0.0,0.0,-0.0563741348394,0.0,0.0,0.0
835,6_61,6,61,0.0,0.0,0.46731271547700004,0.8840920913310001,0.0,0.0,-0.037873644768300005,0.0,0.0,0.0
836,6_62,6,62,0.0,0.0,0.467544154228,0.8839697188519999,0.0,0.0,0.0359537825911,0.0,0.0,0.0
837,6_63,6,63,0.0,0.0,0.46831538520599997,0.883561373069,0.0,0.0,-0.00558505360638,0.0,0.0,0.0
838,6_64,6,64,0.0,0.0,0.467467011537,0.884010516411,0.0,0.0,-0.0401425727959,0.0,0.0,0.0
839,6_65,6,65,0.0,0.0,0.467621293358,0.8839289145620001,0.0,0.0,0.044680428851100004,0.0,0.0,0.0
840,6_66,6,66,0.0,0.0,0.468238278148,0.883602237931,0.0,0.0,0.00279252680319,0.0,0.0,0.0
841,6_67,6,67,0.0,0.0,0.467467011537,0.884010516411,0.0,0.0,-0.045553093477099994,0.0,0.0,0.0
842,6_68,6,68,0.0,0.0,0.467467011537,0.884010516411,0.0,0.0,0.033684854563500004,0.0,0.0,0.0
843,6_69,6,69,0.0,0.0,0.468084053333,0.883683947469,0.0,0.0,0.007853981633970001,0.0,0.0,0.0
844,6_70,6,70,0.0,0.0,0.46731271547700004,0.8840920913310001,0.0,0.0,-0.0370009801423,0.0,0.0,0.0
845,6_71,6,71,0.0,0.0,0.467389865287,0.884051307237,0.0,0.0,0.0322885911619,0.0,0.0,0.0
846,6_72,6,72,0.0,0.0,0.467929814261,0.883765630089,0.0,0.0,0.0012217304764,0.0,0.0,0.0
847,6_73,6,73,0.0,0.0,0.467389865287,0.884051307237,0.0,0.0,-0.041015237421900004,0.0,0.0,0.0
848,6_74,6,74,0.0,0.0,0.467235562108,0.884132868692,0.0,0.0,0.0314159265359,0.0,0.0,0.0
849,6_75,6,75,0.0,0.0,0.467544154228,0.8839697188519999,0.0,0.0,0.0301941960595,0.0,0.0,0.0
850,6_76,6,76,0.0,0.0,0.467929814261,0.883765630089,0.0,0.0,-0.00157079632679,0.0,0.0,0.0
851,6_77,6,77,0.0,0.0,0.467004080655,0.8842551603759999,0.0,0.0,-0.0441568300755,0.0,0.0,0.0
852,6_78,6,78,0.0,0.0,0.46684974190300005,0.884336654496,0.0,0.0,-0.00837758040957,0.0,0.0,0.0
853,6_79,6,79,0.0,0.0,0.467467011537,0.884010516411,0.0,0.0,0.021118483949099997,0.0,0.0,0.0
854,6_80,6,80,0.0,0.0,0.467775560934,0.8838472857870001,0.0,0.0,-0.00488692190558,0.0,0.0,0.0
855,6_81,6,81,0.0,0.0,0.467544154228,0.8839697188519999,0.0,0.0,-0.0364773813667,0.0,0.0,0.0
856,6_82,6,82,0.0,0.0,0.467004080655,0.8842551603759999,0.0,0.0,0.0239110107523,0.0,0.0,0.0
857,6_83,6,83,0.0,0.0,0.467621293358,0.8839289145620001,0.0,0.0,0.0132645023152,0.0,0.0,0.0
858,6_84,6,84,0.0,0.0,0.467621293358,0.8839289145620001,0.0,0.0,-0.023387411976700002,0.0,0.0,0.0
859,6_85,6,85,0.0,0.0,0.467004080655,0.8842551603759999,0.0,0.0,0.0020943951023900003,0.0,0.0,0.0
860,6_86,6,86,0.0,0.0,0.46769842892700003,0.88388810354,0.0,0.0,0.0125663706144,0.0,0.0,0.0
861,6_87,6,87,0.0,0.0,0.467544154228,0.8839697188519999,0.0,0.0,-0.030717794835099996,0.0,0.0,0.0
862,6_88,6,88,0.0,0.0,0.466772567194,0.8843773914540001,0.0,0.0,0.006981317007979999,0.0,0.0,0.0
863,6_89,6,89,0.0,0.0,0.46731271547700004,0.8840920913310001,0.0,0.0,0.0345575191895,0.0,0.0,0.0
864,6_90,6,90,0.0,0.0,0.467775560934,0.8838472857870001,0.0,0.0,-0.029670597283900004,0.0,0.0,0.0
865,6_91,6,91,0.0,0.0,0.467389865287,0.884051307237,0.0,0.0,-0.052534410484999995,0.0,0.0,0.0
866,6_92,6,92,0.0,0.0,0.46669538893,0.884418121677,0.0,0.0,0.0019198621771900001,0.0,0.0,0.0
867,6_93,6,93,0.0,0.0,0.467621293358,0.8839289145620001,0.0,0.0,0.039793506945500004,0.0,0.0,0.0
868,6_94,6,94,0.0,0.0,0.467621293358,0.8839289145620001,0.0,0.0,-0.05270894341019999,0.0,0.0,0.0
869,6_95,6,95,0.0,0.0,0.467004080655,0.8842551603759999,0.0,0.0,-0.04502949470150001,0.0,0.0,0.0
870,6_96,6,96,0.0,0.0,0.46692691305699996,0.8842959108030001,0.0,0.0,0.0280998009571,0.0,0.0,0.0
871,6_97,6,97,0.0,0.0,0.468084053333,0.883683947469,0.0,0.0,0.0345575191895,0.0,0.0,0.0
872,6_98,6,98,0.0,0.0,0.468084053333,0.883683947469,0.0,0.0,-0.0116937059884,0.0,0.0,0.0
873,6_99,6,99,0.0,0.0,0.46692691305699996,0.8842959108030001,0.0,0.0,-0.0427605666739,0.0,0.0,0.0
874,6_100,6,100,0.0,0.0,0.467235562108,0.884132868692,0.0,0.0,0.051138147083400004,0.0,0.0,0.0
875,6_101,6,101,0.0,0.0,0.467621293358,0.8839289145620001,0.0,0.0,0.0483456202802,0.0,0.0,0.0
876,6_102,6,102,0.0,0.0,0.467852689379,0.883806461303,0.0,0.0,-0.0343829862643,0.0,0.0,0.0
877,6_103,6,103,0.0,0.0,0.467158405181,0.8841736393200001,0.0,0.0,-0.0610865238198,0.0,0.0,0.0
878,6_104,6,104,0.0,0.0,0.466772567194,0.8843773914540001,0.0,0.0,0.0219911485751,0.0,0.0,0.0
879,6_105,6,105,0.0,0.0,0.467081244696,0.884214403215,0.0,0.0,0.0441568300755,0.0,0.0,0.0
880,6_106,6,106,0.0,0.0,0.468161167523,0.883643096065,0.0,0.0,0.008028514559169999,0.0,0.0,0.0
881,6_107,6,107,0.0,0.0,0.46800693557899997,0.8837247921439999,0.0,0.0,-0.0242600766027,0.0,0.0,0.0
882,6_108,6,108,0.0,0.0,0.46684974190300005,0.884336654496,0.0,0.0,-0.0357792496659,0.0,0.0,0.0
883,6_109,6,109,0.0,0.0,0.467389865287,0.884051307237,0.0,0.0,0.045553093477099994,0.0,0.0,0.0
884,6_110,6,110,0.0,0.0,0.468084053333,0.883683947469,0.0,0.0,-0.0005235987755980001,0.0,0.0,0.0
885,6_111,6,111,0.0,0.0,0.46692691305699996,0.8842959108030001,0.0,0.0,-0.028972465583099998,0.0,0.0,0.0
886,6_112,6,112,0.0,0.0,0.467235562108,0.884132868692,0.0,0.0,0.0401425727959,0.0,0.0,0.0
887,6_113,6,113,0.0,0.0,0.467852689379,0.883806461303,0.0,0.0,-0.00366519142919,0.0,0.0,0.0
888,6_114,6,114,0.0,0.0,0.46692691305699996,0.8842959108030001,0.0,0.0,-0.0504400153826,0.0,0.0,0.0
889,6_115,6,115,0.0,0.0,0.467158405181,0.8841736393200001,0.0,0.0,0.04502949470150001,0.0,0.0,0.0
890,6_116,6,116,0.0,0.0,0.467852689379,0.883806461303,0.0,0.0,0.008028514559169999,0.0,0.0,0.0
891,6_117,6,117,0.0,0.0,0.466772567194,0.8843773914540001,0.0,0.0,-0.0644026493986,0.0,0.0,0.0
892,6_118,6,118,0.0,0.0,0.467081244696,0.884214403215,0.0,0.0,0.0443313630007,0.0,0.0,0.0
893,6_119,6,119,0.0,0.0,0.467775560934,0.8838472857870001,0.0,0.0,0.00994837673637,0.0,0.0,0.0
894,6_120,6,120,0.0,0.0,0.46692691305699996,0.8842959108030001,0.0,0.0,-0.048171087355,0.0,0.0,0.0
895,6_121,6,121,0.0,0.0,0.467158405181,0.8841736393200001,0.0,0.0,0.045378560551899996,0.0,0.0,0.0
896,6_122,6,122,0.0,0.0,0.467929814261,0.883765630089,0.0,0.0,-0.00157079632679,0.0,0.0,0.0
897,6_123,6,123,0.0,0.0,0.467775560934,0.8838472857870001,0.0,0.0,-0.024609142453099996,0.0,0.0,0.0
898,6_124,6,124,0.0,0.0,0.46669538893,0.884418121677,0.0,0.0,-0.035081117965099995,0.0,0.0,0.0
899,6_125,6,125,0.0,0.0,0.46669538893,0.884418121677,0.0,0.0,0.0102974425868,0.0,0.0,0.0
900,6_126,6,126,0.0,0.0,0.467775560934,0.8838472857870001,0.0,0.0,0.0240855436775,0.0,0.0,0.0
901,6_127,6,127,0.0,0.0,0.467852689379,0.883806461303,0.0,0.0,0.008901179185170001,0.0,0.0,0.0
902,6_128,6,128,0.0,0.0,0.467004080655,0.8842551603759999,0.0,0.0,-0.0478220215046,0.0,0.0,0.0
903,7_0,7,0,0.0,0.0,0.467081244696,0.884214403215,0.0,0.0,0.046076692252699995,0.0,0.0,0.0
904,7_1,7,1,0.0,0.0,0.467467011537,0.884010516411,0.0,0.0,0.0459021593275,0.0,0.0,0.0
905,7_2,7,2,0.0,0.0,0.46769842892700003,0.88388810354,0.0,0.0,0.0267035375555,0.0,0.0,0.0
906,7_3,7,3,0.0,0.0,0.467852689379,0.883806461303,0.0,0.0,-0.0160570291183,0.0,0.0,0.0
907,7_4,7,4,0.0,0.0,0.467544154228,0.8839697188519999,0.0,0.0,-0.041189770347099995,0.0,0.0,0.0
908,7_5,7,5,0.0,0.0,0.46661820711199997,0.884458845165,0.0,0.0,-0.0033161255787899995,0.0,0.0,0.0
909,7_6,7,6,0.0,0.0,0.46769842892700003,0.88388810354,0.0,0.0,0.029670597283900004,0.0,0.0,0.0
910,7_7,7,7,0.0,0.0,0.467544154228,0.8839697188519999,0.0,0.0,-0.039618974020300006,0.0,0.0,0.0
911,7_8,7,8,0.0,0.0,0.466463832817,0.884540271935,0.0,0.0,0.0116937059884,0.0,0.0,0.0
912,7_9,7,9,0.0,0.0,0.46731271547700004,0.8840920913310001,0.0,0.0,0.0380481776935,0.0,0.0,0.0
913,7_10,7,10,0.0,0.0,0.467389865287,0.884051307237,0.0,0.0,-0.0354301838155,0.0,0.0,0.0
914,7_11,7,11,0.0,0.0,0.466541021741,0.8844995619179999,0.0,0.0,0.012391837689200002,0.0,0.0,0.0
915,7_12,7,12,0.0,0.0,0.467389865287,0.884051307237,0.0,0.0,0.0342084533391,0.0,0.0,0.0
916,7_13,7,13,0.0,0.0,0.46731271547700004,0.8840920913310001,0.0,0.0,-0.0443313630007,0.0,0.0,0.0
917,7_14,7,14,0.0,0.0,0.46638664033999994,0.884580975215,0.0,0.0,-0.00244346095279,0.0,0.0,0.0
918,7_15,7,15,0.0,0.0,0.467389865287,0.884051307237,0.0,0.0,0.0329867228627,0.0,0.0,0.0
919,7_16,7,16,0.0,0.0,0.467467011537,0.884010516411,0.0,0.0,-0.025830872929500003,0.0,0.0,0.0
920,7_17,7,17,0.0,0.0,0.466463832817,0.884540271935,0.0,0.0,0.00750491578358,0.0,0.0,0.0
921,7_18,7,18,0.0,0.0,0.46684974190300005,0.884336654496,0.0,0.0,0.0572467994654,0.0,0.0,0.0
922,7_19,7,19,0.0,0.0,0.468238278148,0.883602237931,0.0,0.0,0.014137166941200001,0.0,0.0,0.0
923,7_20,7,20,0.0,0.0,0.467929814261,0.883765630089,0.0,0.0,-0.0321140582367,0.0,0.0,0.0
924,7_21,7,21,0.0,0.0,0.46769842892700003,0.88388810354,0.0,0.0,-0.030717794835099996,0.0,0.0,0.0
925,7_22,7,22,0.0,0.0,0.467467011537,0.884010516411,0.0,0.0,0.0181514242207,0.0,0.0,0.0
926,7_23,7,23,0.0,0.0,0.467929814261,0.883765630089,0.0,0.0,0.042411500823499995,0.0,0.0,0.0
927,7_24,7,24,0.0,0.0,0.46831538520599997,0.883561373069,0.0,0.0,-0.00942477796077,0.0,0.0,0.0
928,7_25,7,25,0.0,0.0,0.46800693557899997,0.8837247921439999,0.0,0.0,-0.0466002910282,0.0,0.0,0.0
929,7_26,7,26,0.0,0.0,0.46731271547700004,0.8840920913310001,0.0,0.0,0.015358897417600001,0.0,0.0,0.0
930,7_27,7,27,0.0,0.0,0.467467011537,0.884010516411,0.0,0.0,0.023561944901900004,0.0,0.0,0.0
931,7_28,7,28,0.0,0.0,0.468238278148,0.883602237931,0.0,0.0,0.0431096325243,0.0,0.0,0.0
932,7_29,7,29,0.0,0.0,0.467775560934,0.8838472857870001,0.0,0.0,-0.04921828490619999,0.0,0.0,0.0
933,7_30,7,30,0.0,0.0,0.467544154228,0.8839697188519999,0.0,0.0,0.028972465583099998,0.0,0.0,0.0
934,7_31,7,31,0.0,0.0,0.468469588624,0.883479623158,0.0,0.0,0.0202458193231,0.0,0.0,0.0
935,7_32,7,32,0.0,0.0,0.468084053333,0.883683947469,0.0,0.0,-0.03525565089030001,0.0,0.0,0.0
936,7_33,7,33,0.0,0.0,0.467544154228,0.8839697188519999,0.0,0.0,0.0162315620435,0.0,0.0,0.0
937,7_34,7,34,0.0,0.0,0.46831538520599997,0.883561373069,0.0,0.0,0.0268780704807,0.0,0.0,0.0
938,7_35,7,35,0.0,0.0,0.468084053333,0.883683947469,0.0,0.0,-0.0331612557879,0.0,0.0,0.0
939,7_36,7,36,0.0,0.0,0.467389865287,0.884051307237,0.0,0.0,0.007679448708779999,0.0,0.0,0.0
940,7_37,7,37,0.0,0.0,0.46800693557899997,0.8837247921439999,0.0,0.0,0.0287979326579,0.0,0.0,0.0
941,7_38,7,38,0.0,0.0,0.468161167523,0.883643096065,0.0,0.0,-0.0324631240871,0.0,0.0,0.0
942,7_39,7,39,0.0,0.0,0.467467011537,0.884010516411,0.0,0.0,0.0005235987755980001,0.0,0.0,0.0
943,7_40,7,40,0.0,0.0,0.468469588624,0.883479623158,0.0,0.0,-0.00279252680319,0.0,0.0,0.0
944,7_41,7,41,0.0,0.0,0.46769842892700003,0.88388810354,0.0,0.0,-0.041189770347099995,0.0,0.0,0.0
945,7_42,7,42,0.0,0.0,0.467467011537,0.884010516411,0.0,0.0,-0.00610865238198,0.0,0.0,0.0
946,7_43,7,43,0.0,0.0,0.468084053333,0.883683947469,0.0,0.0,0.0293215314335,0.0,0.0,0.0
947,7_44,7,44,0.0,0.0,0.468161167523,0.883643096065,0.0,0.0,-0.030717794835099996,0.0,0.0,0.0
948,7_45,7,45,0.0,0.0,0.467775560934,0.8838472857870001,0.0,0.0,-0.047996554429800005,0.0,0.0,0.0
949,7_46,7,46,0.0,0.0,0.467235562108,0.884132868692,0.0,0.0,0.0127409035396,0.0,0.0,0.0
950,7_47,7,47,0.0,0.0,0.467467011537,0.884010516411,0.0,0.0,0.034906585039900004,0.0,0.0,0.0
951,7_48,7,48,0.0,0.0,0.468392488698,0.883520501477,0.0,0.0,0.00837758040957,0.0,0.0,0.0
952,7_49,7,49,0.0,0.0,0.46831538520599997,0.883561373069,0.0,0.0,-0.00977384381117,0.0,0.0,0.0
953,7_50,7,50,0.0,0.0,0.467158405181,0.8841736393200001,0.0,0.0,-0.0286233997327,0.0,0.0,0.0
954,7_51,7,51,0.0,0.0,0.467852689379,0.883806461303,0.0,0.0,0.045553093477099994,0.0,0.0,0.0
955,7_52,7,52,0.0,0.0,0.468161167523,0.883643096065,0.0,0.0,0.039793506945500004,0.0,0.0,0.0
956,7_53,7,53,0.0,0.0,0.468238278148,0.883602237931,0.0,0.0,-0.0375245789179,0.0,0.0,0.0
957,7_54,7,54,0.0,0.0,0.467775560934,0.8838472857870001,0.0,0.0,-0.0659734457254,0.0,0.0,0.0
958,7_55,7,55,0.0,0.0,0.467235562108,0.884132868692,0.0,0.0,0.0342084533391,0.0,0.0,0.0
959,7_56,7,56,0.0,0.0,0.468392488698,0.883520501477,0.0,0.0,0.0249582083035,0.0,0.0,0.0
960,7_57,7,57,0.0,0.0,0.467544154228,0.8839697188519999,0.0,0.0,-0.0741764932098,0.0,0.0,0.0
961,7_58,7,58,0.0,0.0,0.467235562108,0.884132868692,0.0,0.0,0.036302848441499995,0.0,0.0,0.0
962,7_59,7,59,0.0,0.0,0.468392488698,0.883520501477,0.0,0.0,0.026354471705099997,0.0,0.0,0.0
963,7_60,7,60,0.0,0.0,0.46769842892700003,0.88388810354,0.0,0.0,-0.0764454212374,0.0,0.0,0.0
964,7_61,7,61,0.0,0.0,0.467158405181,0.8841736393200001,0.0,0.0,0.0415388361975,0.0,0.0,0.0
965,7_62,7,62,0.0,0.0,0.468238278148,0.883602237931,0.0,0.0,0.0300196631343,0.0,0.0,0.0
966,7_63,7,63,0.0,0.0,0.467852689379,0.883806461303,0.0,0.0,-0.0677187749774,0.0,0.0,0.0
967,7_64,7,64,0.0,0.0,0.467004080655,0.8842551603759999,0.0,0.0,0.022863813201099998,0.0,0.0,0.0
968,7_65,7,65,0.0,0.0,0.468084053333,0.883683947469,0.0,0.0,0.0303687289847,0.0,0.0,0.0
969,7_66,7,66,0.0,0.0,0.467929814261,0.883765630089,0.0,0.0,-0.054105206811800005,0.0,0.0,0.0
970,7_67,7,67,0.0,0.0,0.467004080655,0.8842551603759999,0.0,0.0,0.022340214425499997,0.0,0.0,0.0
971,7_68,7,68,0.0,0.0,0.467235562108,0.884132868692,0.0,0.0,0.034906585039900004,0.0,0.0,0.0
972,7_69,7,69,0.0,0.0,0.468161167523,0.883643096065,0.0,0.0,0.030892327760299997,0.0,0.0,0.0
973,7_70,7,70,0.0,0.0,0.467389865287,0.884051307237,0.0,0.0,-0.0668461103514,0.0,0.0,0.0
974,7_71,7,71,0.0,0.0,0.467004080655,0.8842551603759999,0.0,0.0,-0.041189770347099995,0.0,0.0,0.0
975,7_72,7,72,0.0,0.0,0.467389865287,0.884051307237,0.0,0.0,0.0403171057211,0.0,0.0,0.0
976,7_73,7,73,0.0,0.0,0.46831538520599997,0.883561373069,0.0,0.0,0.00314159265359,0.0,0.0,0.0
977,7_74,7,74,0.0,0.0,0.468084053333,0.883683947469,0.0,0.0,-0.0404916386463,0.0,0.0,0.0
978,7_75,7,75,0.0,0.0,0.466772567194,0.8843773914540001,0.0,0.0,0.00226892802759,0.0,0.0,0.0
979,7_76,7,76,0.0,0.0,0.467621293358,0.8839289145620001,0.0,0.0,0.0506145483078,0.0,0.0,0.0
980,7_77,7,77,0.0,0.0,0.468084053333,0.883683947469,0.0,0.0,0.0483456202802,0.0,0.0,0.0
981,7_78,7,78,0.0,0.0,0.467775560934,0.8838472857870001,0.0,0.0,-0.0572467994654,0.0,0.0,0.0
982,7_79,7,79,0.0,0.0,0.46731271547700004,0.8840920913310001,0.0,0.0,-0.05270894341019999,0.0,0.0,0.0
983,7_80,7,80,0.0,0.0,0.467467011537,0.884010516411,0.0,0.0,0.04502949470150001,0.0,0.0,0.0
984,7_81,7,81,0.0,0.0,0.468238278148,0.883602237931,0.0,0.0,0.0116937059884,0.0,0.0,0.0
985,7_82,7,82,0.0,0.0,0.467004080655,0.8842551603759999,0.0,0.0,-0.0528834763354,0.0,0.0,0.0
986,7_83,7,83,0.0,0.0,0.467081244696,0.884214403215,0.0,0.0,0.0319395253115,0.0,0.0,0.0
987,7_84,7,84,0.0,0.0,0.46800693557899997,0.8837247921439999,0.0,0.0,0.0171042266695,0.0,0.0,0.0
988,7_85,7,85,0.0,0.0,0.467467011537,0.884010516411,0.0,0.0,-0.0483456202802,0.0,0.0,0.0
989,7_86,7,86,0.0,0.0,0.467389865287,0.884051307237,0.0,0.0,0.048171087355,0.0,0.0,0.0
990,7_87,7,87,0.0,0.0,0.468238278148,0.883602237931,0.0,0.0,0.014835298642,0.0,0.0,0.0
991,7_88,7,88,0.0,0.0,0.467081244696,0.884214403215,0.0,0.0,0.007679448708779999,0.0,0.0,0.0
992,7_89,7,89,0.0,0.0,0.467929814261,0.883765630089,0.0,0.0,0.05654866776459999,0.0,0.0,0.0
993,7_90,7,90,0.0,0.0,0.467852689379,0.883806461303,0.0,0.0,-0.0438077642251,0.0,0.0,0.0
994,7_91,7,91,0.0,0.0,0.467467011537,0.884010516411,0.0,0.0,-0.0488692190558,0.0,0.0,0.0
995,7_92,7,92,0.0,0.0,0.467158405181,0.8841736393200001,0.0,0.0,0.0329867228627,0.0,0.0,0.0
996,7_93,7,93,0.0,0.0,0.467467011537,0.884010516411,0.0,0.0,0.0376991118431,0.0,0.0,0.0
997,7_94,7,94,0.0,0.0,0.46800693557899997,0.8837247921439999,0.0,0.0,-0.0034906585039899997,0.0,0.0,0.0
998,7_95,7,95,0.0,0.0,0.467158405181,0.8841736393200001,0.0,0.0,-0.025830872929500003,0.0,0.0,0.0
999,7_96,7,96,0.0,0.0,0.467081244696,0.884214403215,0.0,0.0,-0.000349065850399,0.0,0.0,0.0
1000,7_97,7,97,0.0,0.0,0.467852689379,0.883806461303,0.0,0.0,0.029496064358700003,0.0,0.0,0.0
1001,7_98,7,98,0.0,0.0,0.46769842892700003,0.88388810354,0.0,0.0,-0.028274333882299996,0.0,0.0,0.0
1002,7_99,7,99,0.0,0.0,0.467389865287,0.884051307237,0.0,0.0,-0.036826447217099996,0.0,0.0,0.0
1003,7_100,7,100,0.0,0.0,0.467235562108,0.884132868692,0.0,0.0,0.037873644768300005,0.0,0.0,0.0
1004,7_101,7,101,0.0,0.0,0.467929814261,0.883765630089,0.0,0.0,0.004363323129989999,0.0,0.0,0.0
1005,7_102,7,102,0.0,0.0,0.467389865287,0.884051307237,0.0,0.0,-0.036826447217099996,0.0,0.0,0.0
1006,7_103,7,103,0.0,0.0,0.467081244696,0.884214403215,0.0,0.0,-0.028448866807499997,0.0,0.0,0.0
1007,7_104,7,104,0.0,0.0,0.467467011537,0.884010516411,0.0,0.0,0.03525565089030001,0.0,0.0,0.0
1008,7_105,7,105,0.0,0.0,0.46769842892700003,0.88388810354,0.0,0.0,-0.00855211333477,0.0,0.0,0.0
1009,7_106,7,106,0.0,0.0,0.467004080655,0.8842551603759999,0.0,0.0,-0.0275762021815,0.0,0.0,0.0
1010,7_107,7,107,0.0,0.0,0.467389865287,0.884051307237,0.0,0.0,0.0375245789179,0.0,0.0,0.0
1011,7_108,7,108,0.0,0.0,0.467775560934,0.8838472857870001,0.0,0.0,-0.006632251157579999,0.0,0.0,0.0
1012,7_109,7,109,0.0,0.0,0.467621293358,0.8839289145620001,0.0,0.0,-0.0202458193231,0.0,0.0,0.0
1013,7_110,7,110,0.0,0.0,0.46692691305699996,0.8842959108030001,0.0,0.0,-0.00977384381117,0.0,0.0,0.0
1014,7_111,7,111,0.0,0.0,0.467467011537,0.884010516411,0.0,0.0,0.014660765716799999,0.0,0.0,0.0
1015,7_112,7,112,0.0,0.0,0.467544154228,0.8839697188519999,0.0,0.0,0.007679448708779999,0.0,0.0,0.0
1016,7_113,7,113,0.0,0.0,0.467389865287,0.884051307237,0.0,0.0,-0.022165681500300002,0.0,0.0,0.0
1017,7_114,7,114,0.0,0.0,0.467081244696,0.884214403215,0.0,0.0,0.017453292519900004,0.0,0.0,0.0
1018,7_115,7,115,0.0,0.0,0.46731271547700004,0.8840920913310001,0.0,0.0,0.0232128790515,0.0,0.0,0.0
1019,7_116,7,116,0.0,0.0,0.467621293358,0.8839289145620001,0.0,0.0,0.00157079632679,0.0,0.0,0.0
1020,7_117,7,117,0.0,0.0,0.467544154228,0.8839697188519999,0.0,0.0,-0.008901179185170001,0.0,0.0,0.0
1021,7_118,7,118,0.0,0.0,0.467004080655,0.8842551603759999,0.0,0.0,-0.009250245035569999,0.0,0.0,0.0
1022,7_119,7,119,0.0,0.0,0.467081244696,0.884214403215,0.0,0.0,0.00820304748437,0.0,0.0,0.0
1023,7_120,7,120,0.0,0.0,0.467544154228,0.8839697188519999,0.0,0.0,0.012217304764,0.0,0.0,0.0
1024,7_121,7,121,0.0,0.0,0.467544154228,0.8839697188519999,0.0,0.0,0.00418879020479,0.0,0.0,0.0
1025,7_122,7,122,0.0,0.0,0.467235562108,0.884132868692,0.0,0.0,-0.0300196631343,0.0,0.0,0.0
1026,7_123,7,123,0.0,0.0,0.46692691305699996,0.8842959108030001,0.0,0.0,0.014660765716799999,0.0,0.0,0.0
1027,7_124,7,124,0.0,0.0,0.467389865287,0.884051307237,0.0,0.0,0.012217304764,0.0,0.0,0.0
1028,7_125,7,125,0.0,0.0,0.467081244696,0.884214403215,0.0,0.0,-0.033684854563500004,0.0,0.0,0.0
1029,7_126,7,126,0.0,0.0,0.46692691305699996,0.8842959108030001,0.0,0.0,0.00837758040957,0.0,0.0,0.0
1030,7_127,7,127,0.0,0.0,0.467467011537,0.884010516411,0.0,0.0,0.015533430342700001,0.0,0.0,0.0
1031,7_128,7,128,0.0,0.0,0.467081244696,0.884214403215,0.0,0.0,-0.0343829862643,0.0,0.0,0.0
1032,8_0,8,0,0.0,0.0,0.46692691305699996,0.8842959108030001,0.0,0.0,0.007853981633970001,0.0,0.0,0.0
1033,8_1,8,1,0.0,0.0,0.467467011537,0.884010516411,0.0,0.0,0.021118483949099997,0.0,0.0,0.0
1034,8_2,8,2,0.0,0.0,0.467004080655,0.8842551603759999,0.0,0.0,-0.0406661715715,0.0,0.0,0.0
1035,8_3,8,3,0.0,0.0,0.46661820711199997,0.884458845165,0.0,0.0,0.0102974425868,0.0,0.0,0.0
1036,8_4,8,4,0.0,0.0,0.46731271547700004,0.8840920913310001,0.0,0.0,0.0376991118431,0.0,0.0,0.0
1037,8_5,8,5,0.0,0.0,0.467081244696,0.884214403215,0.0,0.0,-0.0459021593275,0.0,0.0,0.0
1038,8_6,8,6,0.0,0.0,0.46638664033999994,0.884580975215,0.0,0.0,-0.00244346095279,0.0,0.0,0.0
1039,8_7,8,7,0.0,0.0,0.467158405181,0.8841736393200001,0.0,0.0,0.0383972435439,0.0,0.0,0.0
1040,8_8,8,8,0.0,0.0,0.467467011537,0.884010516411,0.0,0.0,0.0329867228627,0.0,0.0,0.0
1041,8_9,8,9,0.0,0.0,0.466772567194,0.8843773914540001,0.0,0.0,-0.060388392119,0.0,0.0,0.0
1042,8_10,8,10,0.0,0.0,0.466309444312,0.884621671759,0.0,0.0,0.0204203522483,0.0,0.0,0.0
1043,8_11,8,11,0.0,0.0,0.466541021741,0.8844995619179999,0.0,0.0,0.036128315516300004,0.0,0.0,0.0
1044,8_12,8,12,0.0,0.0,0.46731271547700004,0.8840920913310001,0.0,0.0,0.012391837689200002,0.0,0.0,0.0
1045,8_13,8,13,0.0,0.0,0.467235562108,0.884132868692,0.0,0.0,-0.0280998009571,0.0,0.0,0.0
1046,8_14,8,14,0.0,0.0,0.466077834922,0.884743720969,0.0,0.0,-0.0256563400043,0.0,0.0,0.0
1047,8_15,8,15,0.0,0.0,0.466077834922,0.884743720969,0.0,0.0,0.0101229096616,0.0,0.0,0.0
1048,8_16,8,16,0.0,0.0,0.467235562108,0.884132868692,0.0,0.0,0.0317649923863,0.0,0.0,0.0
1049,8_17,8,17,0.0,0.0,0.467389865287,0.884051307237,0.0,0.0,0.00994837673637,0.0,0.0,0.0
1050,8_18,8,18,0.0,0.0,0.46731271547700004,0.8840920913310001,0.0,0.0,-0.0181514242207,0.0,0.0,0.0
1051,8_19,8,19,0.0,0.0,0.466463832817,0.884540271935,0.0,0.0,-0.0572467994654,0.0,0.0,0.0
1052,8_20,8,20,0.0,0.0,0.466463832817,0.884540271935,0.0,0.0,0.041189770347099995,0.0,0.0,0.0
1053,8_21,8,21,0.0,0.0,0.46731271547700004,0.8840920913310001,0.0,0.0,0.0176278254451,0.0,0.0,0.0
1054,8_22,8,22,0.0,0.0,0.466463832817,0.884540271935,0.0,0.0,-0.0609119908946,0.0,0.0,0.0
1055,8_23,8,23,0.0,0.0,0.466463832817,0.884540271935,0.0,0.0,0.042411500823499995,0.0,0.0,0.0
1056,8_24,8,24,0.0,0.0,0.46731271547700004,0.8840920913310001,0.0,0.0,0.0202458193231,0.0,0.0,0.0
1057,8_25,8,25,0.0,0.0,0.46669538893,0.884418121677,0.0,0.0,-0.05654866776459999,0.0,0.0,0.0
1058,8_26,8,26,0.0,0.0,0.466541021741,0.8844995619179999,0.0,0.0,0.0371755130675,0.0,0.0,0.0
1059,8_27,8,27,0.0,0.0,0.46731271547700004,0.8840920913310001,0.0,0.0,0.0176278254451,0.0,0.0,0.0
1060,8_28,8,28,0.0,0.0,0.465614520325,0.884987637463,0.0,0.0,-0.21170843826699998,0.0,0.0,0.0
1061,8_29,8,29,0.0,0.0,0.457175541539,0.8893764805859999,0.0,0.0,-0.22410027595600002,0.0,0.0,0.0
1062,8_30,8,30,0.0,0.0,0.450721748209,0.892664497833,0.0,0.0,-0.29949849964200004,0.0,0.0,0.0
1063,8_31,8,31,0.0,0.0,0.44033096641400005,0.897835530605,0.0,0.0,-0.55990162404,0.0,0.0,0.0
1064,8_32,8,32,0.0,0.0,0.42427844691600003,0.90553177718,0.0,0.0,-0.542099265669,0.0,0.0,0.0
1065,8_33,8,33,0.0,0.0,0.41095753728,0.9116544863889999,0.0,0.0,-0.430398193542,0.0,0.0,0.0
1066,8_34,8,34,0.0,0.0,0.407454014479,0.913225725703,0.0,0.0,-0.40666171571500004,0.0,0.0,0.0
1067,8_35,8,35,0.0,0.0,0.395385197406,0.918515403068,0.0,0.0,-0.5597270911150001,0.0,0.0,0.0
1068,8_36,8,36,0.0,0.0,0.38010198524000005,0.924944582565,0.0,0.0,-0.493753645389,0.0,0.0,0.0
1069,8_37,8,37,0.0,0.0,0.375900820721,0.926659901464,0.0,0.0,-0.48572513083,0.0,0.0,0.0
1070,8_38,8,38,0.0,0.0,0.364145422348,0.9313421022280001,0.0,0.0,-0.47647488579400005,0.0,0.0,0.0
1071,8_39,8,39,0.0,0.0,0.357634606739,0.9338616000579999,0.0,0.0,-0.508414411106,0.0,0.0,0.0
1072,8_40,8,40,0.0,0.0,0.34497058210299997,0.9386134973899999,0.0,0.0,-0.47630035286899997,0.0,0.0,0.0
1073,8_41,8,41,0.0,0.0,0.340707751944,0.94016925485,0.0,0.0,-0.497069770968,0.0,0.0,0.0
1074,8_42,8,42,0.0,0.0,0.32573317362,0.9454617388359999,0.0,0.0,-0.492880980763,0.0,0.0,0.0
1075,8_43,8,43,0.0,0.0,0.321274189923,0.946986216842,0.0,0.0,-0.5057964172280001,0.0,0.0,0.0
1076,8_44,8,44,0.0,0.0,0.30893399786,0.951083479494,0.0,0.0,-0.452738407967,0.0,0.0,0.0
1077,8_45,8,45,0.0,0.0,0.293790089132,0.95586996162,0.0,0.0,-0.47699848456999994,0.0,0.0,0.0
1078,8_46,8,46,0.0,0.0,0.289616536184,0.9571427594509999,0.0,0.0,-0.479441945523,0.0,0.0,0.0
1079,8_47,8,47,0.0,0.0,0.27429491304299997,0.9616456211509999,0.0,0.0,-0.462861317629,0.0,0.0,0.0
1080,8_48,8,48,0.0,0.0,0.270180366714,0.9628097265000001,0.0,0.0,-0.47298422728999995,0.0,0.0,0.0
1081,8_49,8,49,0.0,0.0,0.257048459954,0.966398514711,0.0,0.0,-0.47874381382200004,0.0,0.0,0.0
1082,8_50,8,50,0.0,0.0,0.241413816807,0.970422263272,0.0,0.0,-0.51190506961,0.0,0.0,0.0
1083,8_51,8,51,0.0,0.0,0.22809597992699998,0.9736386516259999,0.0,0.0,-0.5038765550509999,0.0,0.0,0.0
1084,8_52,8,52,0.0,0.0,0.21209239184700002,0.9772496187369999,0.0,0.0,-0.49043751981000006,0.0,0.0,0.0
1085,8_53,8,53,0.0,0.0,0.197742884424,0.980253922032,0.0,0.0,-0.5494296485279999,0.0,0.0,0.0
1086,8_54,8,54,0.0,0.0,0.180604977366,0.9835557138009999,0.0,0.0,-0.53372168526,0.0,0.0,0.0
1087,8_55,8,55,0.0,0.0,0.166252457562,0.9860832218200001,0.0,0.0,-0.520806248795,0.0,0.0,0.0
1088,8_56,8,56,0.0,0.0,0.149276482507,0.988795495424,0.0,0.0,-0.522900643898,0.0,0.0,0.0
1089,8_57,8,57,0.0,0.0,0.135196799498,0.990818765166,0.0,0.0,-0.5167919915160001,0.0,0.0,0.0
1090,8_58,8,58,0.0,0.0,0.12827634114,0.9917384636609999,0.0,0.0,-0.496720705118,0.0,0.0,0.0
1091,8_59,8,59,0.0,0.0,0.11433031219499999,0.993442791364,0.0,0.0,-0.508414411106,0.0,0.0,0.0
1092,8_60,8,60,0.0,0.0,0.0985382043742,0.995133268602,0.0,0.0,-0.49078658566100003,0.0,0.0,0.0
1093,8_61,8,61,0.0,0.0,0.0939345535441,0.995578374439,0.0,0.0,-0.5056218843029999,0.0,0.0,0.0
1094,8_62,8,62,0.0,0.0,0.0801989243289,0.996778878456,0.0,0.0,-0.496022573417,0.0,0.0,0.0
1095,8_63,8,63,0.0,0.0,0.0639227042887,0.997954852624,0.0,0.0,-0.491135651511,0.0,0.0,0.0
1096,8_64,8,64,0.0,0.0,0.0593934862086,0.998234648665,0.0,0.0,-0.495673507566,0.0,0.0,0.0
1097,8_65,8,65,0.0,0.0,0.045798866936499996,0.998950681359,0.0,0.0,-0.46495571273100006,0.0,0.0,0.0
1098,8_66,8,66,0.0,0.0,0.0295790159191,0.999562445182,0.0,0.0,-0.5162683927399999,0.0,0.0,0.0
1099,8_67,8,67,0.0,0.0,0.0247811383077,0.999692900437,0.0,0.0,-0.5153957281139999,0.0,0.0,0.0
1100,8_68,8,68,0.0,0.0,0.00767937322778,0.999970513179,0.0,0.0,-0.511381470834,0.0,0.0,0.0
1101,8_69,8,69,0.0,0.0,-0.00357791733276,0.999993599233,0.0,0.0,-0.293738913111,0.0,0.0,0.0
1102,8_70,8,70,0.0,0.0,-0.0117806999367,0.9999306051469999,0.0,0.0,-0.280125344945,0.0,0.0,0.0
1103,8_71,8,71,0.0,0.0,-0.0206806771978,0.999786131926,0.0,0.0,-0.38973202196999995,0.0,0.0,0.0
1104,8_72,8,72,0.0,0.0,-0.033155178388499996,0.999450215942,0.0,0.0,-0.311366738556,0.0,0.0,0.0
1105,8_73,8,73,0.0,0.0,-0.03577161632530001,0.999359990927,0.0,0.0,-0.272794962087,0.0,0.0,0.0
1106,8_74,8,74,0.0,0.0,-0.0403061842411,0.9991873755769999,0.0,0.0,0.00314159265359,0.0,0.0,0.0
1107,8_75,8,75,0.0,0.0,-0.040654963969300004,0.9991732451909999,0.0,0.0,-0.0684169066782,0.0,0.0,0.0
1108,8_76,8,76,0.0,0.0,-0.042224410831199995,0.9991081518680001,0.0,0.0,-0.0933751149817,0.0,0.0,0.0
1109,8_77,8,77,0.0,0.0,-0.047193620116099996,0.998885760345,0.0,0.0,-0.127409035396,0.0,0.0,0.0
1110,8_78,8,78,0.0,0.0,-0.0491112549539,0.9987933142730001,0.0,0.0,-0.0317649923863,0.0,0.0,0.0
1111,8_79,8,79,0.0,0.0,-0.0493727367461,0.998780422749,0.0,0.0,-0.0370009801423,0.0,0.0,0.0
1112,8_80,8,80,0.0,0.0,-0.0515516183793,0.998670331312,0.0,0.0,-0.0856956662729,0.0,0.0,0.0
1113,8_81,8,81,0.0,0.0,-0.05277168558180001,0.998606603824,0.0,0.0,-0.08901179185170001,0.0,0.0,0.0
1114,8_82,8,82,0.0,0.0,-0.0547759098534,0.998498672858,0.0,0.0,-0.0567232006898,0.0,0.0,0.0
1115,8_83,8,83,0.0,0.0,-0.0576511484991,0.9983367894040001,0.0,0.0,-0.11239920382799999,0.0,0.0,0.0
1116,8_84,8,84,0.0,0.0,-0.0586094563111,0.9982809883149999,0.0,0.0,-0.100880030765,0.0,0.0,0.0
1117,8_85,8,85,0.0,0.0,-0.0600903709313,0.9981929409289999,0.0,0.0,-0.0216420827247,0.0,0.0,0.0
1118,8_86,8,86,0.0,0.0,-0.060264587549,0.998182437978,0.0,0.0,-0.010821041362399999,0.0,0.0,0.0
1119,8_87,8,87,0.0,0.0,-0.061484052174899995,0.998108065957,0.0,0.0,-0.09267698328089999,0.0,0.0,0.0
1120,8_88,8,88,0.0,0.0,-0.0627034250282,0.9980322041349999,0.0,0.0,-0.138928208459,0.0,0.0,0.0
1121,8_89,8,89,0.0,0.0,-0.0683635440257,0.9976604762379999,0.0,0.0,-0.160919357034,0.0,0.0,0.0
1122,8_90,8,90,0.0,0.0,-0.07097517578319999,0.9974780821770001,0.0,0.0,-0.0438077642251,0.0,0.0,0.0
1123,8_91,8,91,0.0,0.0,-0.0711492674688,0.997465679479,0.0,0.0,-0.0160570291183,0.0,0.0,0.0
1124,8_92,8,92,0.0,0.0,-0.0718456124849,0.997415764848,0.0,0.0,-0.044680428851100004,0.0,0.0,0.0
1125,8_93,8,93,0.0,0.0,-0.07236784828580001,0.997378009851,0.0,0.0,-0.0575958653158,0.0,0.0,0.0
1126,8_94,8,94,0.0,0.0,-0.0736733506747,0.9972824260959999,0.0,0.0,-0.051138147083400004,0.0,0.0,0.0
1127,8_95,8,95,0.0,0.0,-0.0745436156069,0.9972177542399999,0.0,0.0,-0.0610865238198,0.0,0.0,0.0
1128,8_96,8,96,0.0,0.0,-0.0758489063577,0.997119322551,0.0,0.0,-0.08307767239489999,0.0,0.0,0.0
1129,8_97,8,97,0.0,0.0,-0.0791550561451,0.996862316013,0.0,0.0,-0.08482300164689999,0.0,0.0,0.0
1130,8_98,8,98,0.0,0.0,-0.0801119386569,0.996785873337,0.0,0.0,-0.0205948851735,0.0,0.0,0.0
1131,8_99,8,99,0.0,0.0,-0.082286395708,0.996608724165,0.0,0.0,-0.127583568321,0.0,0.0,0.0
1132,8_100,8,100,0.0,0.0,-0.08724267680299999,0.996187088525,0.0,0.0,-0.172962128873,0.0,0.0,0.0
1133,8_101,8,101,0.0,0.0,-0.0902849454487,0.995915974681,0.0,0.0,-0.0275762021815,0.0,0.0,0.0
1134,8_102,8,102,0.0,0.0,-0.09071948716119999,0.9958764856389999,0.0,0.0,-0.023387411976700002,0.0,0.0,0.0
1135,8_103,8,103,0.0,0.0,-0.0919361118067,0.995764907669,0.0,0.0,-0.0553269372882,0.0,0.0,0.0
1136,8_104,8,104,0.0,0.0,-0.09341325707380001,0.995627421982,0.0,0.0,-0.056897733614999994,0.0,0.0,0.0
1137,8_105,8,105,0.0,0.0,-0.09610634334799999,0.995371071896,0.0,0.0,-0.106290551446,0.0,0.0,0.0
1138,8_106,8,106,0.0,0.0,-0.0971486406103,0.9952698838140001,0.0,0.0,-0.113620934305,0.0,0.0,0.0
1139,8_107,8,107,0.0,0.0,-0.099406584345,0.995046898889,0.0,0.0,-0.0329867228627,0.0,0.0,0.0
1140,8_108,8,108,0.0,0.0,-0.099406584345,0.995046898889,0.0,0.0,0.0020943951023900003,0.0,0.0,0.0
1141,8_109,8,109,0.0,0.0,-0.100101233848,0.99497725752,0.0,0.0,-0.0581194640914,0.0,0.0,0.0
1142,8_110,8,110,0.0,0.0,-0.10096947707800001,0.994889523866,0.0,0.0,-0.09965830028889999,0.0,0.0,0.0
1143,8_111,8,111,0.0,0.0,-0.10470203849,0.994503636562,0.0,0.0,-0.09634217471010001,0.0,0.0,0.0
1144,8_112,8,112,0.0,0.0,-0.106090525009,0.9943564755679999,0.0,0.0,-0.028274333882299996,0.0,0.0,0.0
1145,8_113,8,113,0.0,0.0,-0.10635084328700001,0.994328667057,0.0,0.0,-0.021816615649900003,0.0,0.0,0.0
1146,8_114,8,114,0.0,0.0,-0.107739083894,0.994179204068,0.0,0.0,-0.069987703005,0.0,0.0,0.0
1147,8_115,8,115,0.0,0.0,-0.108433125601,0.994103745729,0.0,0.0,-0.0774926187885,0.0,0.0,0.0
1148,8_116,8,116,0.0,0.0,-0.10999452569700001,0.993932193018,0.0,0.0,-0.0317649923863,0.0,0.0,0.0
1149,8_117,8,117,0.0,0.0,-0.111295485288,0.993787359023,0.0,0.0,-0.0605629250442,0.0,0.0,0.0
1150,8_118,8,118,0.0,0.0,-0.113636730484,0.993522366877,0.0,0.0,-0.0888372589265,0.0,0.0,0.0
1151,8_119,8,119,0.0,0.0,-0.11511052499600001,0.9933526901530001,0.0,0.0,-0.005759586531579999,0.0,0.0,0.0
1152,8_120,8,120,0.0,0.0,-0.11623737355999998,0.9932214622069999,0.0,0.0,-0.07888888219010001,0.0,0.0,0.0
1153,8_121,8,121,0.0,0.0,-0.119790293837,0.992799217114,0.0,0.0,-0.11414453308,0.0,0.0,0.0
1154,8_122,8,122,0.0,0.0,-0.121263008763,0.9926204121950001,0.0,0.0,0.0102974425868,0.0,0.0,0.0
1155,8_123,8,123,0.0,0.0,-0.121609491257,0.992578022946,0.0,0.0,-0.04206243497309999,0.0,0.0,0.0
1156,8_124,8,124,0.0,0.0,-0.12438081422,0.992234555463,0.0,0.0,-0.10506882097,0.0,0.0,0.0
1157,8_125,8,125,0.0,0.0,-0.126285537418,0.9919939329649999,0.0,0.0,-0.035604716740699996,0.0,0.0,0.0
1158,8_126,8,126,0.0,0.0,-0.127324281602,0.991861143162,0.0,0.0,-0.0438077642251,0.0,0.0,0.0
1159,8_127,8,127,0.0,0.0,-0.128968673884,0.991648668207,0.0,0.0,-0.0642281164734,0.0,0.0,0.0
1160,8_128,8,128,0.0,0.0,-0.130180104731,0.991490363207,0.0,0.0,-0.015533430342700001,0.0,0.0,0.0
1161,9_0,9,0,0.0,0.0,-0.130439671837,0.9914562481579999,0.0,0.0,-0.029496064358700003,0.0,0.0,0.0
1162,9_1,9,1,0.0,0.0,-0.13242938799,0.99119244206,0.0,0.0,-0.0925024503557,0.0,0.0,0.0
1163,9_2,9,2,0.0,0.0,-0.133294316036,0.991076498214,0.0,0.0,-0.10332349171800001,0.0,0.0,0.0
1164,9_3,9,3,0.0,0.0,-0.135802030977,0.9907359932809999,0.0,0.0,-0.0251327412287,0.0,0.0,0.0
1165,9_4,9,4,0.0,0.0,-0.135802030977,0.9907359932809999,0.0,0.0,0.009250245035569999,0.0,0.0,0.0
1166,9_5,9,5,0.0,0.0,-0.136147854798,0.990688529071,0.0,0.0,-0.054105206811800005,0.0,0.0,0.0
1167,9_6,9,6,0.0,0.0,-0.138568154691,0.990352899983,0.0,0.0,-0.09162978572969999,0.0,0.0,0.0
1168,9_7,9,7,0.0,0.0,-0.139345933222,0.990243763371,0.0,0.0,-0.07923794804050001,0.0,0.0,0.0
1169,9_8,9,8,0.0,0.0,-0.139864404519,0.990170666273,0.0,0.0,0.0310668606855,0.0,0.0,0.0
1170,9_9,9,9,0.0,0.0,-0.13969158500700002,0.990195062136,0.0,0.0,0.00872664625997,0.0,0.0,0.0
1171,9_10,9,10,0.0,0.0,-0.141333197824,0.989962083715,0.0,0.0,-0.09634217471010001,0.0,0.0,0.0
1172,9_11,9,11,0.0,0.0,-0.14470160186,0.9894753389650001,0.0,0.0,-0.0809832772925,0.0,0.0,0.0
1173,9_12,9,12,0.0,0.0,-0.14591036574400001,0.9892978141940001,0.0,0.0,-0.0390953752447,0.0,0.0,0.0
1174,9_13,9,13,0.0,0.0,-0.147723102651,0.9890287584,0.0,0.0,-0.0555014702134,0.0,0.0,0.0
1175,9_14,9,14,0.0,0.0,-0.148672433897,0.9888864987450001,0.0,0.0,-0.011868238913600001,0.0,0.0,0.0
1176,9_15,9,15,0.0,0.0,-0.14875872995699999,0.988873520862,0.0,0.0,-0.0181514242207,0.0,0.0,0.0
1177,9_16,9,16,0.0,0.0,-0.150484412391,0.988612381891,0.0,0.0,-0.0719075651822,0.0,0.0,0.0
1178,9_17,9,17,0.0,0.0,-0.15177837367799998,0.988414551331,0.0,0.0,-0.0179768912955,0.0,0.0,0.0
1179,9_18,9,18,0.0,0.0,-0.152468380166,0.988308349175,0.0,0.0,-0.0518362787842,0.0,0.0,0.0
1180,9_19,9,19,0.0,0.0,-0.155658688263,0.987810899296,0.0,0.0,-0.14276793281300001,0.0,0.0,0.0
1181,9_20,9,20,0.0,0.0,-0.158675054211,0.987330860032,0.0,0.0,-0.039968039870699995,0.0,0.0,0.0
1182,9_21,9,21,0.0,0.0,-0.158330401065,0.987386187922,0.0,0.0,0.027227136331099997,0.0,0.0,0.0
1183,9_22,9,22,0.0,0.0,-0.159536602398,0.987192013995,0.0,0.0,-0.0766199541626,0.0,0.0,0.0
1184,9_23,9,23,0.0,0.0,-0.160311891908,0.987066409778,0.0,0.0,-0.0869173967493,0.0,0.0,0.0
1185,9_24,9,24,0.0,0.0,-0.161689939895,0.986841610055,0.0,0.0,-0.0202458193231,0.0,0.0,0.0
1186,9_25,9,25,0.0,0.0,-0.161776057456,0.986827496189,0.0,0.0,0.0012217304764,0.0,0.0,0.0
1187,9_26,9,26,0.0,0.0,-0.161948288881,0.98679924591,0.0,0.0,-0.028274333882299996,0.0,0.0,0.0
1188,9_27,9,27,0.0,0.0,-0.16229273692500001,0.9867426551749999,0.0,0.0,-0.045553093477099994,0.0,0.0,0.0
1189,9_28,9,28,0.0,0.0,-0.16435900845100002,0.986400586142,0.0,0.0,-0.0532325421858,0.0,0.0,0.0
1190,9_29,9,29,0.0,0.0,-0.165305809168,0.9862423583759999,0.0,0.0,-0.033684854563500004,0.0,0.0,0.0
1191,9_30,9,30,0.0,0.0,-0.165650062618,0.986184595679,0.0,0.0,-0.0483456202802,0.0,0.0,0.0
1192,9_31,9,31,0.0,0.0,-0.16728499015,0.985908582005,0.0,0.0,-0.0338593874887,0.0,0.0,0.0
1193,9_32,9,32,0.0,0.0,-0.16745706111,0.98587937025,0.0,0.0,-0.0169296937443,0.0,0.0,0.0
1194,9_33,9,33,0.0,0.0,-0.167801187722,0.9858208566459999,0.0,0.0,-0.0012217304764,0.0,0.0,0.0
1195,9_34,9,34,0.0,0.0,-0.16891945778700002,0.9856298578980001,0.0,0.0,-0.0549778714378,0.0,0.0,0.0
1196,9_35,9,35,0.0,0.0,-0.17072543417999997,0.985318641925,0.0,0.0,-0.06527531402459999,0.0,0.0,0.0
1197,9_36,9,36,0.0,0.0,-0.171585221787,0.985169280715,0.0,0.0,-0.0115191730632,0.0,0.0,0.0
1198,9_37,9,37,0.0,0.0,-0.17304656048300002,0.9849136448970001,0.0,0.0,-0.09948376736369999,0.0,0.0,0.0
1199,9_38,9,38,0.0,0.0,-0.177342396056,0.984149213565,0.0,0.0,-0.11711159280899999,0.0,0.0,0.0
1200,9_39,9,39,0.0,0.0,-0.178458763563,0.983947391738,0.0,0.0,0.014660765716799999,0.0,0.0,0.0
1201,9_40,9,40,0.0,0.0,-0.17863049206,0.983916229822,0.0,0.0,-0.0497418836818,0.0,0.0,0.0
1202,9_41,9,41,0.0,0.0,-0.18069080810600002,0.983539949298,0.0,0.0,-0.054454272662199994,0.0,0.0,0.0
1203,9_42,9,42,0.0,0.0,-0.181377404435,0.983413563645,0.0,0.0,-0.004014257279590001,0.0,0.0,0.0
1204,9_43,9,43,0.0,0.0,-0.18172066947,0.983350191075,0.0,0.0,-0.039793506945500004,0.0,0.0,0.0
1205,9_44,9,44,0.0,0.0,-0.183865572622,0.9829513981899999,0.0,0.0,-0.08395033702089999,0.0,0.0,0.0
1206,9_45,9,45,0.0,0.0,-0.185495114273,0.982645186515,0.0,0.0,-0.0406661715715,0.0,0.0,0.0
1207,9_46,9,46,0.0,0.0,-0.185923856449,0.982564155464,0.0,0.0,-0.0452040276267,0.0,0.0,0.0
1208,9_47,9,47,0.0,0.0,-0.18763847036200001,0.982238160753,0.0,0.0,-0.0741764932098,0.0,0.0,0.0
1209,9_48,9,48,0.0,0.0,-0.188238450464,0.9821233556769999,0.0,0.0,-0.0619591884458,0.0,0.0,0.0
1210,9_49,9,49,0.0,0.0,-0.188152743316,0.982139778841,0.0,0.0,0.0240855436775,0.0,0.0,0.0
1211,9_50,9,50,0.0,0.0,-0.18806703473499997,0.982156194526,0.0,0.0,0.0034906585039899997,0.0,0.0,0.0
1212,9_51,9,51,0.0,0.0,-0.189438199716,0.981892646112,0.0,0.0,-0.08761552845010001,0.0,0.0,0.0
1213,9_52,9,52,0.0,0.0,-0.191665553932,0.981460297432,0.0,0.0,-0.0485201532054,0.0,0.0,0.0
1214,9_53,9,53,0.0,0.0,-0.19183684814899998,0.9814268305339999,0.0,0.0,-0.00296705972839,0.0,0.0,0.0
1215,9_54,9,54,0.0,0.0,-0.191665553932,0.981460297432,0.0,0.0,-0.041713369122699996,0.0,0.0,0.0
1216,9_55,9,55,0.0,0.0,-0.192350695715,0.981326250468,0.0,0.0,-0.08604473212330001,0.0,0.0,0.0
1217,9_56,9,56,0.0,0.0,-0.195860568724,0.98063175434,0.0,0.0,-0.134390352404,0.0,0.0,0.0
1218,9_57,9,57,0.0,0.0,-0.196887376316,0.980426111978,0.0,0.0,0.036826447217099996,0.0,0.0,0.0
1219,9_58,9,58,0.0,0.0,-0.196373999438,0.980529067567,0.0,0.0,-0.0274016692563,0.0,0.0,0.0
1220,9_59,9,59,0.0,0.0,-0.198854819736,0.9800289590960001,0.0,0.0,-0.0766199541626,0.0,0.0,0.0
1221,9_60,9,60,0.0,0.0,-0.199709980514,0.979855052384,0.0,0.0,0.00610865238198,0.0,0.0,0.0
1222,9_61,9,61,0.0,0.0,-0.199282419096,0.979942099024,0.0,0.0,-0.014835298642,0.0,0.0,0.0
1223,9_62,9,62,0.0,0.0,-0.200992436314,0.979592793228,0.0,0.0,-0.0781907504893,0.0,0.0,0.0
1224,9_63,9,63,0.0,0.0,-0.20218908438299998,0.979346503622,0.0,0.0,-0.00994837673637,0.0,0.0,0.0
1225,9_64,9,64,0.0,0.0,-0.20278729535700002,0.9792228106219999,0.0,0.0,-0.0457276264023,0.0,0.0,0.0
1226,9_65,9,65,0.0,0.0,-0.204068920917,0.978956523813,0.0,0.0,-0.022165681500300002,0.0,0.0,0.0
1227,9_66,9,66,0.0,0.0,-0.203898057664,0.978992125648,0.0,0.0,0.00977384381117,0.0,0.0,0.0
1228,9_67,9,67,0.0,0.0,-0.20458147335700003,0.978849539387,0.0,0.0,-0.0548033385126,0.0,0.0,0.0
1229,9_68,9,68,0.0,0.0,-0.206887263232,0.9783647889779999,0.0,0.0,-0.053407075111,0.0,0.0,0.0
1230,9_69,9,69,0.0,0.0,-0.207143391442,0.978310592492,0.0,0.0,-0.015533430342700001,0.0,0.0,0.0
1231,9_70,9,70,0.0,0.0,-0.206887263232,0.9783647889779999,0.0,0.0,-0.009075712110370001,0.0,0.0,0.0
1232,9_71,9,71,0.0,0.0,-0.207143391442,0.978310592492,0.0,0.0,-0.0382227106187,0.0,0.0,0.0
1233,9_72,9,72,0.0,0.0,-0.21004518135699998,0.977691680331,0.0,0.0,-0.10978120994999999,0.0,0.0,0.0
1234,9_73,9,73,0.0,0.0,-0.21089829821400002,0.977508009077,0.0,0.0,-0.09389871375730001,0.0,0.0,0.0
1235,9_74,9,74,0.0,0.0,-0.21141009127799998,0.977397448997,0.0,0.0,0.047298422729,0.0,0.0,0.0
1236,9_75,9,75,0.0,0.0,-0.21132479645500002,0.977415894286,0.0,0.0,-0.0546288055874,0.0,0.0,0.0
1237,9_76,9,76,0.0,0.0,-0.21200710992199998,0.9772681235680001,0.0,0.0,-0.069987703005,0.0,0.0,0.0
1238,9_77,9,77,0.0,0.0,-0.213627189669,0.9769152592899999,0.0,0.0,-0.0185004900711,0.0,0.0,0.0
1239,9_78,9,78,0.0,0.0,-0.213627189669,0.9769152592899999,0.0,0.0,0.007853981633970001,0.0,0.0,0.0
1240,9_79,9,79,0.0,0.0,-0.21294512215300002,0.977064161123,0.0,0.0,-0.0020943951023900003,0.0,0.0,0.0
1241,9_80,9,80,0.0,0.0,-0.215161460387,0.9765784894030001,0.0,0.0,-0.0993092344385,0.0,0.0,0.0
1242,9_81,9,81,0.0,0.0,-0.217632222696,0.9760308476909999,0.0,0.0,-0.056025068989000004,0.0,0.0,0.0
1243,9_82,9,82,0.0,0.0,-0.217972908468,0.975954820253,0.0,0.0,-0.00715584993318,0.0,0.0,0.0
1244,9_83,9,83,0.0,0.0,-0.218739354284,0.975783323739,0.0,0.0,-0.0434586983747,0.0,0.0,0.0
1245,9_84,9,84,0.0,0.0,-0.21907995358600002,0.9757069098540001,0.0,0.0,0.0157079632679,0.0,0.0,0.0
1246,9_85,9,85,0.0,0.0,-0.218654200292,0.9758024086329999,0.0,0.0,0.0,0.0,0.0,0.0
1247,9_86,9,86,0.0,0.0,-0.219675938108,0.975572899489,0.0,0.0,-0.0539306738866,0.0,0.0,0.0
1248,9_87,9,87,0.0,0.0,-0.22103788026500001,0.975265223151,0.0,0.0,-0.0197222205475,0.0,0.0,0.0
1249,9_88,9,88,0.0,0.0,-0.22129319652600002,0.975207322148,0.0,0.0,-0.0134390352404,0.0,0.0,0.0
1250,9_89,9,89,0.0,0.0,-0.222399391499,0.974955645484,0.0,0.0,-0.04084070449669999,0.0,0.0,0.0
1251,9_90,9,90,0.0,0.0,-0.222994916479,0.97481960753,0.0,0.0,-0.00750491578358,0.0,0.0,0.0
1252,9_91,9,91,0.0,0.0,-0.222994916479,0.97481960753,0.0,0.0,-0.0134390352404,0.0,0.0,0.0
1253,9_92,9,92,0.0,0.0,-0.224270760949,0.9745268727869999,0.0,0.0,-0.06579891280019999,0.0,0.0,0.0
1254,9_93,9,93,0.0,0.0,-0.225461202458,0.974252147129,0.0,0.0,0.007853981633970001,0.0,0.0,0.0
1255,9_94,9,94,0.0,0.0,-0.225206136118,0.974311139346,0.0,0.0,0.027052603405900003,0.0,0.0,0.0
1256,9_95,9,95,0.0,0.0,-0.225291159947,0.974291482694,0.0,0.0,-0.0383972435439,0.0,0.0,0.0
1257,9_96,9,96,0.0,0.0,-0.225801266869,0.9741733869700001,0.0,0.0,-0.0575958653158,0.0,0.0,0.0
1258,9_97,9,97,0.0,0.0,-0.227416196389,0.973797655378,0.0,0.0,-0.03525565089030001,0.0,0.0,0.0
1259,9_98,9,98,0.0,0.0,-0.22767112822299998,0.973738084586,0.0,0.0,-0.0193731546971,0.0,0.0,0.0
1260,9_99,9,99,0.0,0.0,-0.227246233173,0.97383733216,0.0,0.0,0.0134390352404,0.0,0.0,0.0
1261,9_100,9,100,0.0,0.0,-0.22826590845400002,0.973598826539,0.0,0.0,-0.0727802298082,0.0,0.0,0.0
1262,9_101,9,101,0.0,0.0,-0.22903050070300002,0.97341924665,0.0,0.0,-0.0808087443673,0.0,0.0,0.0
1263,9_102,9,102,0.0,0.0,-0.230813999056,0.972997892002,0.0,0.0,-0.0188495559215,0.0,0.0,0.0
1264,9_103,9,103,0.0,0.0,-0.23072908809300002,0.9730180306180001,0.0,0.0,0.014137166941200001,0.0,0.0,0.0
1265,9_104,9,104,0.0,0.0,-0.230559260896,0.9730582856209999,0.0,0.0,-0.023561944901900004,0.0,0.0,0.0
1266,9_105,9,105,0.0,0.0,-0.23276646475499999,0.972532659033,0.0,0.0,-0.08307767239489999,0.0,0.0,0.0
1267,9_106,9,106,0.0,0.0,-0.233954463532,0.972247555406,0.0,0.0,-0.0019198621771900001,0.0,0.0,0.0
1268,9_107,9,107,0.0,0.0,-0.233445363856,0.9723699203980001,0.0,0.0,-0.007679448708779999,0.0,0.0,0.0
1269,9_108,9,108,0.0,0.0,-0.234463499069,0.9721249238680001,0.0,0.0,-0.0478220215046,0.0,0.0,0.0
1270,9_109,9,109,0.0,0.0,-0.234887646252,0.9720225273309999,0.0,0.0,0.026005405854700004,0.0,0.0,0.0
1271,9_110,9,110,0.0,0.0,-0.234124149178,0.9722067078409999,0.0,0.0,-0.000698131700798,0.0,0.0,0.0
1272,9_111,9,111,0.0,0.0,-0.235142113103,0.9719610005789999,0.0,0.0,-0.0619591884458,0.0,0.0,0.0
1273,9_112,9,112,0.0,0.0,-0.23624461632899998,0.971693614909,0.0,0.0,-0.00157079632679,0.0,0.0,0.0
1274,9_113,9,113,0.0,0.0,-0.236075020203,0.9717348325730001,0.0,0.0,-0.00558505360638,0.0,0.0,0.0
1275,9_114,9,114,0.0,0.0,-0.23717726625,0.9714663887,0.0,0.0,-0.058992128717400005,0.0,0.0,0.0
1276,9_115,9,115,0.0,0.0,-0.23802494018399997,0.9712590426090001,0.0,0.0,0.00418879020479,0.0,0.0,0.0
1277,9_116,9,116,0.0,0.0,-0.23751635753400002,0.971383539033,0.0,0.0,-0.00593411945678,0.0,0.0,0.0
1278,9_117,9,117,0.0,0.0,-0.237770657007,0.971321324108,0.0,0.0,-0.036826447217099996,0.0,0.0,0.0
1279,9_118,9,118,0.0,0.0,-0.23912664521,0.970988386929,0.0,0.0,-0.042935099599099996,0.0,0.0,0.0
1280,9_119,9,119,0.0,0.0,-0.23938084117699998,0.970925750445,0.0,0.0,-0.0256563400043,0.0,0.0,0.0
1281,9_120,9,120,0.0,0.0,-0.23938084117699998,0.970925750445,0.0,0.0,-0.00314159265359,0.0,0.0,0.0
1282,9_121,9,121,0.0,0.0,-0.239465569521,0.970904856829,0.0,0.0,-0.022165681500300002,0.0,0.0,0.0
