,row_id,series_id,measurement_number,orientation_X,orientation_Y,orientation_Z,orientation_W,angular_velocity_X,angular_velocity_Y,angular_velocity_Z,linear_acceleration_X,linear_acceleration_Y,linear_acceleration_Z
0,0_0,0,0,0.0,0.0,0.9594124718539999,0.2820065759,0.0,0.0,0.0,0.0,0.0,0.0
1,0_1,0,1,0.0,0.0,0.9594124718539999,0.2820065759,0.0,0.0,0.0,0.0,0.0,0.0
2,0_2,0,2,0.0,0.0,0.9594124718539999,0.2820065759,0.0,0.0,0.0,0.0,0.0,0.0
3,0_3,0,3,0.0,0.0,0.9594124718539999,0.2820065759,0.0,0.0,0.0,0.0,0.0,0.0
4,0_4,0,4,0.0,0.0,0.9594124718539999,0.2820065759,0.0,0.0,0.0,0.0,0.0,0.0
5,0_5,0,5,0.0,0.0,0.9594124718539999,0.2820065759,0.0,0.0,0.0,0.0,0.0,0.0
6,0_6,0,6,0.0,0.0,0.9594124718539999,0.2820065759,0.0,0.0,0.0,0.0,0.0,0.0
7,0_7,0,7,0.0,0.0,0.9594124718539999,0.2820065759,0.0,0.0,0.0,0.0,0.0,0.0
8,0_8,0,8,0.0,0.0,0.9594124718539999,0.2820065759,0.0,0.0,0.0,0.0,0.0,0.0
9,0_9,0,9,0.0,0.0,0.9594124718539999,0.2820065759,0.0,0.0,0.0,0.0,0.0,0.0
10,0_10,0,10,0.0,0.0,0.9594124718539999,0.2820065759,0.0,0.0,0.0,0.0,0.0,0.0
11,0_11,0,11,0.0,0.0,0.9594124718539999,0.2820065759,0.0,0.0,0.0,0.0,0.0,0.0
12,0_12,0,12,0.0,0.0,0.9594124718539999,0.2820065759,0.0,0.0,0.0,0.0,0.0,0.0
13,0_13,0,13,0.0,0.0,0.9594124718539999,0.2820065759,0.0,0.0,0.0,0.0,0.0,0.0
14,0_14,0,14,0.0,0.0,0.9594124718539999,0.2820065759,0.0,0.0,0.0,0.0,0.0,0.0
15,0_15,0,15,0.0,0.0,0.9594124718539999,0.2820065759,0.0,0.0,0.0,0.0,0.0,0.0
16,0_16,0,16,0.0,0.0,0.9594124718539999,0.2820065759,0.0,0.0,0.0,0.0,0.0,0.0
17,0_17,0,17,0.0,0.0,0.9594124718539999,0.2820065759,0.0,0.0,0.0,0.0,0.0,0.0
18,0_18,0,18,0.0,0.0,0.9594124718539999,0.2820065759,0.0,0.0,0.0,0.0,0.0,0.0
19,0_19,0,19,0.0,0.0,0.9594124718539999,0.2820065759,0.0,0.0,0.0,0.0,0.0,0.0
20,0_20,0,20,0.0,0.0,0.9594124718539999,0.2820065759,0.0,0.0,0.0,0.0,0.0,0.0
21,0_21,0,21,0.0,0.0,0.9594124718539999,0.2820065759,0.0,0.0,-0.000872664625997,0.0,0.0,0.0
22,0_22,0,22,0.0,0.0,0.9594124718539999,0.2820065759,0.0,0.0,0.00261799387799,0.0,0.0,0.0
23,0_23,0,23,0.0,0.0,0.9594124718539999,0.2820065759,0.0,0.0,-0.00226892802759,0.0,0.0,0.0
24,0_24,0,24,0.0,0.0,0.959338609827,0.282257739831,0.0,0.0,0.000349065850399,0.0,0.0,0.0
25,0_25,0,25,0.0,0.0,0.959363237809,0.282174020669,0.0,0.0,-0.000872664625997,0.0,0.0,0.0
26,0_26,0,26,0.0,0.0,0.958794946203,0.28409901642900004,0.0,0.0,-0.08447393579649999,0.0,0.0,0.0
27,0_27,0,27,0.0,0.0,0.958521789017,0.28501926247,0.0,0.0,-0.00366519142919,0.0,0.0,0.0
28,0_28,0,28,0.0,0.0,0.95862122111,0.284684657889,0.0,0.0,-0.000174532925199,0.0,0.0,0.0
29,0_29,0,29,0.0,0.0,0.9585963740369999,0.284768312288,0.0,0.0,0.00488692190558,0.0,0.0,0.0
30,0_30,0,30,0.0,0.0,0.958447138302,0.285270193117,0.0,0.0,-0.0317649923863,0.0,0.0,0.0
31,0_31,0,31,0.0,0.0,0.958422240132,0.285353832322,0.0,0.0,0.0034906585039899997,0.0,0.0,0.0
32,0_32,0,32,0.0,0.0,0.958372421895,0.285521104212,0.0,0.0,-0.00715584993318,0.0,0.0,0.0
33,0_33,0,33,0.0,0.0,0.9583973346629999,0.285437469354,0.0,0.0,-0.012217304764,0.0,0.0,0.0
34,0_34,0,34,0.0,0.0,0.958272697843,0.285855621895,0.0,0.0,-0.007679448708779999,0.0,0.0,0.0
35,0_35,0,35,0.0,0.0,0.9582477485850001,0.28593924587499997,0.0,0.0,-0.0013962634016,0.0,0.0,0.0
36,0_36,0,36,0.0,0.0,0.958172857028,0.286190104747,0.0,0.0,-0.014660765716799999,0.0,0.0,0.0
37,0_37,0,37,0.0,0.0,0.958097899798,0.286440944004,0.0,0.0,-0.00174532925199,0.0,0.0,0.0
38,0_38,0,38,0.0,0.0,0.958097899798,0.286440944004,0.0,0.0,-0.00157079632679,0.0,0.0,0.0
39,0_39,0,39,0.0,0.0,0.958072899462,0.286524552728,0.0,0.0,0.00645771823238,0.0,0.0,0.0
40,0_40,0,40,0.0,0.0,0.958122892838,0.286357333099,0.0,0.0,0.020943951023900002,0.0,0.0,0.0
41,0_41,0,41,0.0,0.0,0.958097899798,0.286440944004,0.0,0.0,-0.0186750229963,0.0,0.0,0.0
42,0_42,0,42,0.0,0.0,0.958072899462,0.286524552728,0.0,0.0,-0.0178023583703,0.0,0.0,0.0
43,0_43,0,43,0.0,0.0,0.957947788344,0.286942563604,0.0,0.0,-0.007679448708779999,0.0,0.0,0.0
44,0_44,0,44,0.0,0.0,0.957922744234,0.287026159226,0.0,0.0,-0.0101229096616,0.0,0.0,0.0
45,0_45,0,45,0.0,0.0,0.9578976928290001,0.287109752662,0.0,0.0,-0.00837758040957,0.0,0.0,0.0
46,0_46,0,46,0.0,0.0,0.957847568134,0.287276932975,0.0,0.0,-0.00558505360638,0.0,0.0,0.0
47,0_47,0,47,0.0,0.0,0.957847568134,0.287276932975,0.0,0.0,0.0012217304764,0.0,0.0,0.0
48,0_48,0,48,0.0,0.0,0.957847568134,0.287276932975,0.0,0.0,-0.000872664625997,0.0,0.0,0.0
49,0_49,0,49,0.0,0.0,0.9577723263850001,0.287527687034,0.0,0.0,-0.014311699866400001,0.0,0.0,0.0
50,0_50,0,50,0.0,0.0,0.957697018991,0.287778421386,0.0,0.0,-0.0005235987755980001,0.0,0.0,0.0
51,0_51,0,51,0.0,0.0,0.957747231214,0.287611267342,0.0,0.0,-0.0050614548307799994,0.0,0.0,0.0
52,0_52,0,52,0.0,0.0,0.95767190194,0.287861995122,0.0,0.0,-0.00820304748437,0.0,0.0,0.0
53,0_53,0,53,0.0,0.0,0.957596507027,0.288112703171,0.0,0.0,-0.0202458193231,0.0,0.0,0.0
54,0_54,0,54,0.0,0.0,0.95767190194,0.287861995122,0.0,0.0,0.012217304764,0.0,0.0,0.0
55,0_55,0,55,0.0,0.0,0.9576216459579999,0.288029136015,0.0,0.0,-0.0169296937443,0.0,0.0,0.0
56,0_56,0,56,0.0,0.0,0.957571360805,0.288196268134,0.0,0.0,0.00244346095279,0.0,0.0,0.0
57,0_57,0,57,0.0,0.0,0.957470702993,0.288530506031,0.0,0.0,-0.0207694180987,0.0,0.0,0.0
58,0_58,0,58,0.0,0.0,0.9574958783840001,0.288446949851,0.0,0.0,0.0193731546971,0.0,0.0,0.0
59,0_59,0,59,0.0,0.0,0.9574958783840001,0.288446949851,0.0,0.0,-0.0197222205475,0.0,0.0,0.0
60,0_60,0,60,0.0,0.0,0.957395133072,0.288781161384,0.0,0.0,-0.0050614548307799994,0.0,0.0,0.0
61,0_61,0,61,0.0,0.0,0.9573447166689999,0.288948253958,0.0,0.0,-0.0216420827247,0.0,0.0,0.0
62,0_62,0,62,0.0,0.0,0.957319497532,0.289031796944,0.0,0.0,0.009599310885969999,0.0,0.0,0.0
63,0_63,0,63,0.0,0.0,0.9573447166689999,0.288948253958,0.0,0.0,0.00837758040957,0.0,0.0,0.0
64,0_64,0,64,0.0,0.0,0.9572942711040001,0.28911533773000003,0.0,0.0,0.0038397243543899996,0.0,0.0,0.0
65,0_65,0,65,0.0,0.0,0.957420330337,0.288697611798,0.0,0.0,0.004363323129989999,0.0,0.0,0.0
66,0_66,0,66,0.0,0.0,0.9573699285160001,0.28886470877099996,0.0,0.0,-0.0219911485751,0.0,0.0,0.0
67,0_67,0,67,0.0,0.0,0.957218548081,0.289365946873,0.0,0.0,0.0005235987755980001,0.0,0.0,0.0
68,0_68,0,68,0.0,0.0,0.957269037387,0.289198876314,0.0,0.0,-0.0157079632679,0.0,0.0,0.0
69,0_69,0,69,0.0,0.0,0.9571932924940001,0.289449478848,0.0,0.0,-0.0254818070791,0.0,0.0,0.0
70,0_70,0,70,0.0,0.0,0.957117481996,0.28970006154399996,0.0,0.0,0.0020943951023900003,0.0,0.0,0.0
71,0_71,0,71,0.0,0.0,0.956965664205,0.290201167351,0.0,0.0,-0.011868238913600001,0.0,0.0,0.0
72,0_72,0,72,0.0,0.0,0.956940335732,0.29028467725400003,0.0,0.0,-0.009599310885969999,0.0,0.0,0.0
73,0_73,0,73,0.0,0.0,0.957041605898,0.289950624384,0.0,0.0,0.00523598775598,0.0,0.0,0.0
74,0_74,0,74,0.0,0.0,0.956990985391,0.290117655238,0.0,0.0,-0.0191986217719,0.0,0.0,0.0
75,0_75,0,75,0.0,0.0,0.956838948966,0.29061869475499996,0.0,0.0,-0.000349065850399,0.0,0.0,0.0
76,0_76,0,76,0.0,0.0,0.9567882118619999,0.290785690228,0.0,0.0,-0.0277507351067,0.0,0.0,0.0
77,0_77,0,77,0.0,0.0,0.956762832381,0.290869184643,0.0,0.0,0.0169296937443,0.0,0.0,0.0
78,0_78,0,78,0.0,0.0,0.956762832381,0.290869184643,0.0,0.0,-0.028972465583099998,0.0,0.0,0.0
79,0_79,0,79,0.0,0.0,0.956762832381,0.290869184643,0.0,0.0,0.0183259571459,0.0,0.0,0.0
80,0_80,0,80,0.0,0.0,0.956534089191,0.291620534626,0.0,0.0,-0.05270894341019999,0.0,0.0,0.0
81,0_81,0,81,0.0,0.0,0.956381265923,0.29212133470699997,0.0,0.0,0.0010471975512,0.0,0.0,0.0
82,0_82,0,82,0.0,0.0,0.956202640726,0.292705500237,0.0,0.0,-0.022165681500300002,0.0,0.0,0.0
83,0_83,0,83,0.0,0.0,0.956355769886,0.292204793604,0.0,0.0,0.0132645023152,0.0,0.0,0.0
84,0_84,0,84,0.0,0.0,0.956100408978,0.293039260085,0.0,0.0,-0.036302848441499995,0.0,0.0,0.0
85,0_85,0,85,0.0,0.0,0.956100408978,0.293039260085,0.0,0.0,-0.0129154364648,0.0,0.0,0.0
86,0_86,0,86,0.0,0.0,0.9559980607330001,0.293372984228,0.0,0.0,0.005759586531579999,0.0,0.0,0.0
87,0_87,0,87,0.0,0.0,0.9560236587150001,0.293289556542,0.0,0.0,-0.024609142453099996,0.0,0.0,0.0
88,0_88,0,88,0.0,0.0,0.9559468429279999,0.293539832896,0.0,0.0,-0.0277507351067,0.0,0.0,0.0
89,0_89,0,89,0.0,0.0,0.9559212231049999,0.293623253878,0.0,0.0,-0.00628318530718,0.0,0.0,0.0
90,0_90,0,90,0.0,0.0,0.956202640726,0.292705500237,0.0,0.0,0.0338593874887,0.0,0.0,0.0
91,0_91,0,91,0.0,0.0,0.9559724554700001,0.293456409679,0.0,0.0,-0.0345575191895,0.0,0.0,0.0
92,0_92,0,92,0.0,0.0,0.9559468429279999,0.293539832896,0.0,0.0,0.0013962634016,0.0,0.0,0.0
93,0_93,0,93,0.0,0.0,0.95586996162,0.293790089132,0.0,0.0,-0.0176278254451,0.0,0.0,0.0
94,0_94,0,94,0.0,0.0,0.95586996162,0.293790089132,0.0,0.0,0.0165806278939,0.0,0.0,0.0
95,0_95,0,95,0.0,0.0,0.956125977838,0.292955823469,0.0,0.0,0.0111701072128,0.0,0.0,0.0
96,0_96,0,96,0.0,0.0,0.9558443199590001,0.293873503404,0.0,0.0,-0.0109955742876,0.0,0.0,0.0
97,0_97,0,97,0.0,0.0,0.95586996162,0.293790089132,0.0,0.0,0.0183259571459,0.0,0.0,0.0
98,0_98,0,98,0.0,0.0,0.955895596002,0.293706672624,0.0,0.0,-0.0300196631343,0.0,0.0,0.0
99,0_99,0,99,0.0,0.0,0.95586996162,0.293790089132,0.0,0.0,0.015358897417600001,0.0,0.0,0.0
100,0_100,0,100,0.0,0.0,0.955895596002,0.293706672624,0.0,0.0,0.0111701072128,0.0,0.0,0.0
101,0_101,0,101,0.0,0.0,0.955793014798,0.294040325232,0.0,0.0,0.0164060949687,0.0,0.0,0.0
102,0_102,0,102,0.0,0.0,0.955895596002,0.293706672624,0.0,0.0,0.042411500823499995,0.0,0.0,0.0
103,0_103,0,103,0.0,0.0,0.9559724554700001,0.293456409679,0.0,0.0,-0.036826447217099996,0.0,0.0,0.0
104,0_104,0,104,0.0,0.0,0.95586996162,0.293790089132,0.0,0.0,0.025830872929500003,0.0,0.0,0.0
105,0_105,0,105,0.0,0.0,0.955793014798,0.294040325232,0.0,0.0,-0.0319395253115,0.0,0.0,0.0
106,0_106,0,106,0.0,0.0,0.955818671018,0.293956915437,0.0,0.0,0.0134390352404,0.0,0.0,0.0
107,0_107,0,107,0.0,0.0,0.955613217466,0.29462413106199997,0.0,0.0,-0.0335103216383,0.0,0.0,0.0
108,0_108,0,108,0.0,0.0,0.9556903171340001,0.294373942013,0.0,0.0,0.0012217304764,0.0,0.0,0.0
109,0_109,0,109,0.0,0.0,0.955484572474,0.295041067928,0.0,0.0,-0.00628318530718,0.0,0.0,0.0
110,0_110,0,110,0.0,0.0,0.955484572474,0.295041067928,0.0,0.0,-0.028972465583099998,0.0,0.0,0.0
111,0_111,0,111,0.0,0.0,0.955329958363,0.29554131801399997,0.0,0.0,0.009075712110370001,0.0,0.0,0.0
112,0_112,0,112,0.0,0.0,0.955484572474,0.295041067928,0.0,0.0,-0.023561944901900004,0.0,0.0,0.0
113,0_113,0,113,0.0,0.0,0.955381525503,0.295374576981,0.0,0.0,0.0193731546971,0.0,0.0,0.0
114,0_114,0,114,0.0,0.0,0.955458821645,0.295124448563,0.0,0.0,0.00942477796077,0.0,0.0,0.0
115,0_115,0,115,0.0,0.0,0.955252553089,0.295791412681,0.0,0.0,-0.0253072741539,0.0,0.0,0.0
116,0_116,0,116,0.0,0.0,0.955381525503,0.295374576981,0.0,0.0,-0.009075712110370001,0.0,0.0,0.0
117,0_117,0,117,0.0,0.0,0.95530416388,0.295624685155,0.0,0.0,-0.036826447217099996,0.0,0.0,0.0
118,0_118,0,118,0.0,0.0,0.955329958363,0.29554131801399997,0.0,0.0,0.0268780704807,0.0,0.0,0.0
119,0_119,0,119,0.0,0.0,0.955355745571,0.295457948623,0.0,0.0,0.00296705972839,0.0,0.0,0.0
120,0_120,0,120,0.0,0.0,0.9550975461310001,0.296291541179,0.0,0.0,0.00296705972839,0.0,0.0,0.0
121,0_121,0,121,0.0,0.0,0.955149244213,0.29612484069899997,0.0,0.0,0.026005405854700004,0.0,0.0,0.0
122,0_122,0,122,0.0,0.0,0.9552267367820001,0.295874773066,0.0,0.0,-0.0193731546971,0.0,0.0,0.0
123,0_123,0,123,0.0,0.0,0.9552009131999999,0.295958131198,0.0,0.0,-0.0033161255787899995,0.0,0.0,0.0
124,0_124,0,124,0.0,0.0,0.9552009131999999,0.295958131198,0.0,0.0,-0.0345575191895,0.0,0.0,0.0
125,0_125,0,125,0.0,0.0,0.9548386193430001,0.297124908097,0.0,0.0,0.010471975512,0.0,0.0,0.0
126,0_126,0,126,0.0,0.0,0.954916373739,0.29687492175200003,0.0,0.0,0.0301941960595,0.0,0.0,0.0
127,0_127,0,127,0.0,0.0,0.954890462879,0.296958252795,0.0,0.0,-0.0195476876223,0.0,0.0,0.0
128,0_128,0,128,0.0,0.0,0.954864544747,0.297041581577,0.0,0.0,-0.0171042266695,0.0,0.0,0.0
129,1_0,1,0,0.0,0.0,0.9544488658140001,0.298374534012,0.0,0.0,-0.0214675497995,0.0,0.0,0.0
130,1_1,1,1,0.0,0.0,0.954474900269,0.29829124149999997,0.0,0.0,0.00855211333477,0.0,0.0,0.0
131,1_2,1,2,0.0,0.0,0.9544228240889999,0.298457824252,0.0,0.0,-0.000349065850399,0.0,0.0,0.0
132,1_3,1,3,0.0,0.0,0.954344655307,0.298707681332,0.0,0.0,-0.011868238913600001,0.0,0.0,0.0
133,1_4,1,4,0.0,0.0,0.9544488658140001,0.298374534012,0.0,0.0,-0.00942477796077,0.0,0.0,0.0
134,1_5,1,5,0.0,0.0,0.954292506446,0.298874241346,0.0,0.0,0.009250245035569999,0.0,0.0,0.0
135,1_6,1,6,0.0,0.0,0.954292506446,0.298874241346,0.0,0.0,-0.0160570291183,0.0,0.0,0.0
136,1_7,1,7,0.0,0.0,0.9542142286509999,0.299124064295,0.0,0.0,0.00855211333477,0.0,0.0,0.0
137,1_8,1,8,0.0,0.0,0.954135885454,0.299373866742,0.0,0.0,-0.00453785605519,0.0,0.0,0.0
138,1_9,1,9,0.0,0.0,0.9541620071200001,0.299290601539,0.0,0.0,0.013962634016,0.0,0.0,0.0
139,1_10,1,10,0.0,0.0,0.954292506446,0.298874241346,0.0,0.0,0.0034906585039899997,0.0,0.0,0.0
140,1_11,1,11,0.0,0.0,0.954135885454,0.299373866742,0.0,0.0,-0.009250245035569999,0.0,0.0,0.0
141,1_12,1,12,0.0,0.0,0.954109756523,0.299457129666,0.0,0.0,-0.00157079632679,0.0,0.0,0.0
142,1_13,1,13,0.0,0.0,0.9540574768619999,0.299623648671,0.0,0.0,-0.012042771838799999,0.0,0.0,0.0
143,1_14,1,14,0.0,0.0,0.954031326134,0.299706904751,0.0,0.0,0.000872664625997,0.0,0.0,0.0
144,1_15,1,15,0.0,0.0,0.954083620326,0.29954039030900004,0.0,0.0,-0.00296705972839,0.0,0.0,0.0
145,1_16,1,16,0.0,0.0,0.9540574768619999,0.299623648671,0.0,0.0,-0.0150098315672,0.0,0.0,0.0
146,1_17,1,17,0.0,0.0,0.9541620071200001,0.299290601539,0.0,0.0,0.0169296937443,0.0,0.0,0.0
147,1_18,1,18,0.0,0.0,0.954188121518,0.29920733405600003,0.0,0.0,0.0019198621771900001,0.0,0.0,0.0
148,1_19,1,19,0.0,0.0,0.954083620326,0.29954039030900004,0.0,0.0,-0.0050614548307799994,0.0,0.0,0.0
149,1_20,1,20,0.0,0.0,0.9540574768619999,0.299623648671,0.0,0.0,-0.0207694180987,0.0,0.0,0.0
150,1_21,1,21,0.0,0.0,0.9540051681399999,0.299790158549,0.0,0.0,-0.014835298642,0.0,0.0,0.0
151,1_22,1,22,0.0,0.0,0.954031326134,0.299706904751,0.0,0.0,0.00977384381117,0.0,0.0,0.0
152,1_23,1,23,0.0,0.0,0.954083620326,0.29954039030900004,0.0,0.0,0.0129154364648,0.0,0.0,0.0
153,1_24,1,24,0.0,0.0,0.9540574768619999,0.299623648671,0.0,0.0,-0.000872664625997,0.0,0.0,0.0
154,1_25,1,25,0.0,0.0,0.953979002881,0.299873410064,0.0,0.0,-0.030717794835099996,0.0,0.0,0.0
155,1_26,1,26,0.0,0.0,0.9540051681399999,0.299790158549,0.0,0.0,0.0242600766027,0.0,0.0,0.0
156,1_27,1,27,0.0,0.0,0.9540574768619999,0.299623648671,0.0,0.0,-0.008901179185170001,0.0,0.0,0.0
157,1_28,1,28,0.0,0.0,0.9540574768619999,0.299623648671,0.0,0.0,-0.000872664625997,0.0,0.0,0.0
158,1_29,1,29,0.0,0.0,0.9538742691959999,0.300206393279,0.0,0.0,0.00279252680319,0.0,0.0,0.0
159,1_30,1,30,0.0,0.0,0.953979002881,0.299873410064,0.0,0.0,-0.008901179185170001,0.0,0.0,0.0
160,1_31,1,31,0.0,0.0,0.9539266505670001,0.300039906241,0.0,0.0,0.00610865238198,0.0,0.0,0.0
161,1_32,1,32,0.0,0.0,0.953690705585,0.30078902586399997,0.0,0.0,-0.03403392041390001,0.0,0.0,0.0
162,1_33,1,33,0.0,0.0,0.953795642658,0.300456106688,0.0,0.0,0.0151843644924,0.0,0.0,0.0
163,1_34,1,34,0.0,0.0,0.953795642658,0.300456106688,0.0,0.0,-0.0205948851735,0.0,0.0,0.0
164,1_35,1,35,0.0,0.0,0.9537694192849999,0.300539339916,0.0,0.0,-0.0164060949687,0.0,0.0,0.0
165,1_36,1,36,0.0,0.0,0.9536381934720001,0.30095547171,0.0,0.0,0.00261799387799,0.0,0.0,0.0
166,1_37,1,37,0.0,0.0,0.953690705585,0.30078902586399997,0.0,0.0,-0.000872664625997,0.0,0.0,0.0
167,1_38,1,38,0.0,0.0,0.953690705585,0.30078902586399997,0.0,0.0,-0.0013962634016,0.0,0.0,0.0
168,1_39,1,39,0.0,0.0,0.953611926521,0.301038691196,0.0,0.0,-0.0317649923863,0.0,0.0,0.0
169,1_40,1,40,0.0,0.0,0.953533082097,0.301288335895,0.0,0.0,-0.023561944901900004,0.0,0.0,0.0
170,1_41,1,41,0.0,0.0,0.953533082097,0.301288335895,0.0,0.0,0.00174532925199,0.0,0.0,0.0
171,1_42,1,42,0.0,0.0,0.9535856523080001,0.301121908389,0.0,0.0,0.0136135681656,0.0,0.0,0.0
172,1_43,1,43,0.0,0.0,0.9536381934720001,0.30095547171,0.0,0.0,0.0,0.0,0.0,0.0
173,1_44,1,44,0.0,0.0,0.953611926521,0.301038691196,0.0,0.0,-0.00994837673637,0.0,0.0,0.0
174,1_45,1,45,0.0,0.0,0.9534278545370001,0.301621163369,0.0,0.0,-0.000349065850399,0.0,0.0,0.0
175,1_46,1,46,0.0,0.0,0.9534015294949999,0.301704364497,0.0,0.0,-0.00244346095279,0.0,0.0,0.0
176,1_47,1,47,0.0,0.0,0.9534278545370001,0.301621163369,0.0,0.0,0.00628318530718,0.0,0.0,0.0
177,1_48,1,48,0.0,0.0,0.9534015294949999,0.301704364497,0.0,0.0,-0.0116937059884,0.0,0.0,0.0
178,1_49,1,49,0.0,0.0,0.9533488576289999,0.301870759858,0.0,0.0,-0.024609142453099996,0.0,0.0,0.0
179,1_50,1,50,0.0,0.0,0.953296156722,0.302037146025,0.0,0.0,0.00471238898038,0.0,0.0,0.0
180,1_51,1,51,0.0,0.0,0.9532434267759999,0.30220352299000003,0.0,0.0,-0.0034906585039899997,0.0,0.0,0.0
181,1_52,1,52,0.0,0.0,0.953137879774,0.3025362493,0.0,0.0,-0.0232128790515,0.0,0.0,0.0
182,1_53,1,53,0.0,0.0,0.9530850627200002,0.302702598633,0.0,0.0,0.00157079632679,0.0,0.0,0.0
183,1_54,1,54,0.0,0.0,0.9530850627200002,0.302702598633,0.0,0.0,-0.007679448708779999,0.0,0.0,0.0
184,1_55,1,55,0.0,0.0,0.953032216634,0.302868938746,0.0,0.0,-0.0191986217719,0.0,0.0,0.0
185,1_56,1,56,0.0,0.0,0.953032216634,0.302868938746,0.0,0.0,0.0179768912955,0.0,0.0,0.0
186,1_57,1,57,0.0,0.0,0.953005782705,0.302952105343,0.0,0.0,0.00471238898038,0.0,0.0,0.0
187,1_58,1,58,0.0,0.0,0.952952893073,0.303118431615,0.0,0.0,-0.00872664625997,0.0,0.0,0.0
188,1_59,1,59,0.0,0.0,0.952899974412,0.303284748653,0.0,0.0,0.00872664625997,0.0,0.0,0.0
189,1_60,1,60,0.0,0.0,0.952899974412,0.303284748653,0.0,0.0,-0.0207694180987,0.0,0.0,0.0
190,1_61,1,61,0.0,0.0,0.952767550771,0.303700500819,0.0,0.0,-0.017453292519900004,0.0,0.0,0.0
191,1_62,1,62,0.0,0.0,0.952741044275,0.303783644317,0.0,0.0,0.0134390352404,0.0,0.0,0.0
192,1_63,1,63,0.0,0.0,0.952794050011,0.303617355009,0.0,0.0,0.00977384381117,0.0,0.0,0.0
193,1_64,1,64,0.0,0.0,0.952741044275,0.303783644317,0.0,0.0,-0.0136135681656,0.0,0.0,0.0
194,1_65,1,65,0.0,0.0,0.952794050011,0.303617355009,0.0,0.0,0.0185004900711,0.0,0.0,0.0
195,1_66,1,66,0.0,0.0,0.952767550771,0.303700500819,0.0,0.0,-0.0127409035396,0.0,0.0,0.0
196,1_67,1,67,0.0,0.0,0.952820541996,0.303534206887,0.0,0.0,0.027925268031900003,0.0,0.0,0.0
197,1_68,1,68,0.0,0.0,0.9528735041959999,0.303367903708,0.0,0.0,0.0169296937443,0.0,0.0,0.0
198,1_69,1,69,0.0,0.0,0.952767550771,0.303700500819,0.0,0.0,-0.0050614548307799994,0.0,0.0,0.0
199,1_70,1,70,0.0,0.0,0.953058643306,0.302785769843,0.0,0.0,0.008028514559169999,0.0,0.0,0.0
200,1_71,1,71,0.0,0.0,0.953032216634,0.302868938746,0.0,0.0,-0.0242600766027,0.0,0.0,0.0
201,1_72,1,72,0.0,0.0,0.952899974412,0.303284748653,0.0,0.0,-0.014137166941200001,0.0,0.0,0.0
202,1_73,1,73,0.0,0.0,0.952767550771,0.303700500819,0.0,0.0,-0.0162315620435,0.0,0.0,0.0
203,1_74,1,74,0.0,0.0,0.952741044275,0.303783644317,0.0,0.0,-0.007853981633970001,0.0,0.0,0.0
204,1_75,1,75,0.0,0.0,0.952714530523,0.303866785501,0.0,0.0,-0.0237364778271,0.0,0.0,0.0
205,1_76,1,76,0.0,0.0,0.9526614812540001,0.304033060925,0.0,0.0,-0.00226892802759,0.0,0.0,0.0
206,1_77,1,77,0.0,0.0,0.952581852938,0.304282456696,0.0,0.0,0.00750491578358,0.0,0.0,0.0
207,1_78,1,78,0.0,0.0,0.952581852938,0.304282456696,0.0,0.0,-0.00610865238198,0.0,0.0,0.0
208,1_79,1,79,0.0,0.0,0.9525021593340001,0.30453183161200004,0.0,0.0,-0.014835298642,0.0,0.0,0.0
209,1_80,1,80,0.0,0.0,0.952315953719,0.30511362521499996,0.0,0.0,-0.0301941960595,0.0,0.0,0.0
210,1_81,1,81,0.0,0.0,0.9524224004459999,0.304781185655,0.0,0.0,0.010821041362399999,0.0,0.0,0.0
211,1_82,1,82,0.0,0.0,0.9524224004459999,0.304781185655,0.0,0.0,0.0205948851735,0.0,0.0,0.0
212,1_83,1,83,0.0,0.0,0.952369191588,0.304947410079,0.0,0.0,-0.035604716740699996,0.0,0.0,0.0
213,1_84,1,84,0.0,0.0,0.95234257628,0.305030518809,0.0,0.0,-0.006632251157579999,0.0,0.0,0.0
214,1_85,1,85,0.0,0.0,0.952369191588,0.304947410079,0.0,0.0,-0.006632251157579999,0.0,0.0,0.0
215,1_86,1,86,0.0,0.0,0.9522360425249999,0.30536293049,0.0,0.0,-0.0129154364648,0.0,0.0,0.0
216,1_87,1,87,0.0,0.0,0.952129392742,0.305695304963,0.0,0.0,-0.0277507351067,0.0,0.0,0.0
217,1_88,1,88,0.0,0.0,0.952262686841,0.305279831056,0.0,0.0,0.046251225177800004,0.0,0.0,0.0
218,1_89,1,89,0.0,0.0,0.9522360425249999,0.30536293049,0.0,0.0,-0.00750491578358,0.0,0.0,0.0
219,1_90,1,90,0.0,0.0,0.9522360425249999,0.30536293049,0.0,0.0,-0.00366519142919,0.0,0.0,0.0
220,1_91,1,91,0.0,0.0,0.952022626946,0.30602764218899997,0.0,0.0,-0.0342084533391,0.0,0.0,0.0
221,1_92,1,92,0.0,0.0,0.9522360425249999,0.30536293049,0.0,0.0,0.055152404363,0.0,0.0,0.0
222,1_93,1,93,0.0,0.0,0.952315953719,0.30511362521499996,0.0,0.0,0.0111701072128,0.0,0.0,0.0
223,1_94,1,94,0.0,0.0,0.952289323906,0.305196729298,0.0,0.0,0.0193731546971,0.0,0.0,0.0
224,1_95,1,95,0.0,0.0,0.9526084029649999,0.304199327089,0.0,0.0,-0.0197222205475,0.0,0.0,0.0
225,1_96,1,96,0.0,0.0,0.952475580291,0.304614951946,0.0,0.0,-0.043982297150300005,0.0,0.0,0.0
226,1_97,1,97,0.0,0.0,0.952156066065,0.305612214835,0.0,0.0,-0.0343829862643,0.0,0.0,0.0
227,1_98,1,98,0.0,0.0,0.951781979795,0.30677526454799997,0.0,0.0,0.0181514242207,0.0,0.0,0.0
228,1_99,1,99,0.0,0.0,0.951889006575,0.306443011278,0.0,0.0,0.039793506945500004,0.0,0.0,0.0
229,1_100,1,100,0.0,0.0,0.9521027121690001,0.305778392763,0.0,0.0,-0.0010471975512,0.0,0.0,0.0
230,1_101,1,101,0.0,0.0,0.951781979795,0.30677526454799997,0.0,0.0,-0.03525565089030001,0.0,0.0,0.0
231,1_102,1,102,0.0,0.0,0.951674837042,0.307107480437,0.0,0.0,-0.035604716740699996,0.0,0.0,0.0
232,1_103,1,103,0.0,0.0,0.951808747363,0.30669220473299996,0.0,0.0,0.00471238898038,0.0,0.0,0.0
233,1_104,1,104,0.0,0.0,0.9517552049779999,0.306858322026,0.0,0.0,-0.0193731546971,0.0,0.0,0.0
234,1_105,1,105,0.0,0.0,0.951781979795,0.30677526454799997,0.0,0.0,0.014137166941200001,0.0,0.0,0.0
235,1_106,1,106,0.0,0.0,0.951648033235,0.30719052856400003,0.0,0.0,-0.0134390352404,0.0,0.0,0.0
236,1_107,1,107,0.0,0.0,0.951701633602,0.307024429971,0.0,0.0,-0.0305432619099,0.0,0.0,0.0
237,1_108,1,108,0.0,0.0,0.951513905495,0.307605734096,0.0,0.0,0.006981317007979999,0.0,0.0,0.0
238,1_109,1,109,0.0,0.0,0.951513905495,0.307605734096,0.0,0.0,-0.0116937059884,0.0,0.0,0.0
239,1_110,1,110,0.0,0.0,0.951648033235,0.30719052856400003,0.0,0.0,0.0202458193231,0.0,0.0,0.0
240,1_111,1,111,0.0,0.0,0.9514602036750001,0.307771799916,0.0,0.0,-0.0038397243543899996,0.0,0.0,0.0
241,1_112,1,112,0.0,0.0,0.951648033235,0.30719052856400003,0.0,0.0,-0.009599310885969999,0.0,0.0,0.0
242,1_113,1,113,0.0,0.0,0.951540745537,0.307522697673,0.0,0.0,0.013089969390000001,0.0,0.0,0.0
243,1_114,1,114,0.0,0.0,0.951379596601,0.308020881065,0.0,0.0,-0.0198967534727,0.0,0.0,0.0
244,1_115,1,115,0.0,0.0,0.951674837042,0.307107480437,0.0,0.0,0.0219911485751,0.0,0.0,0.0
245,1_116,1,116,0.0,0.0,0.951621222181,0.307273574352,0.0,0.0,-0.0190240888467,0.0,0.0,0.0
246,1_117,1,117,0.0,0.0,0.951621222181,0.307273574352,0.0,0.0,0.008028514559169999,0.0,0.0,0.0
247,1_118,1,118,0.0,0.0,0.9513527130859999,0.308103903424,0.0,0.0,-0.014660765716799999,0.0,0.0,0.0
248,1_119,1,119,0.0,0.0,0.951406472871,0.30793785636,0.0,0.0,0.0249582083035,0.0,0.0,0.0
249,1_120,1,120,0.0,0.0,0.951540745537,0.307522697673,0.0,0.0,-0.0280998009571,0.0,0.0,0.0
250,1_121,1,121,0.0,0.0,0.9514602036750001,0.307771799916,0.0,0.0,-0.008028514559169999,0.0,0.0,0.0
251,1_122,1,122,0.0,0.0,0.951540745537,0.307522697673,0.0,0.0,-0.00680678408278,0.0,0.0,0.0
252,1_123,1,123,0.0,0.0,0.9514870582080001,0.307688768178,0.0,0.0,-0.024609142453099996,0.0,0.0,0.0
253,1_124,1,124,0.0,0.0,0.951513905495,0.307605734096,0.0,0.0,0.026354471705099997,0.0,0.0,0.0
254,1_125,1,125,0.0,0.0,0.951540745537,0.307522697673,0.0,0.0,0.0010471975512,0.0,0.0,0.0
255,1_126,1,126,0.0,0.0,0.951433341896,0.30785482930999997,0.0,0.0,0.009250245035569999,0.0,0.0,0.0
256,1_127,1,127,0.0,0.0,0.951379596601,0.308020881065,0.0,0.0,-0.0268780704807,0.0,0.0,0.0
257,1_128,1,128,0.0,0.0,0.9513527130859999,0.308103903424,0.0,0.0,0.0033161255787899995,0.0,0.0,0.0
258,2_0,2,0,0.0,0.0,0.951594403879,0.3073566178,0.0,0.0,-0.0202458193231,0.0,0.0,0.0
259,2_1,2,1,0.0,0.0,0.951567578331,0.30743965890700004,0.0,0.0,0.00977384381117,0.0,0.0,0.0
260,2_2,2,2,0.0,0.0,0.951379596601,0.308020881065,0.0,0.0,-0.010646508437200001,0.0,0.0,0.0
261,2_3,2,3,0.0,0.0,0.951379596601,0.308020881065,0.0,0.0,0.010471975512,0.0,0.0,0.0
262,2_4,2,4,0.0,0.0,0.951594403879,0.3073566178,0.0,0.0,-0.005410520681180001,0.0,0.0,0.0
263,2_5,2,5,0.0,0.0,0.951621222181,0.307273574352,0.0,0.0,0.00523598775598,0.0,0.0,0.0
264,2_6,2,6,0.0,0.0,0.9514870582080001,0.307688768178,0.0,0.0,-0.0010471975512,0.0,0.0,0.0
265,2_7,2,7,0.0,0.0,0.951674837042,0.307107480437,0.0,0.0,-0.00418879020479,0.0,0.0,0.0
266,2_8,2,8,0.0,0.0,0.951621222181,0.307273574352,0.0,0.0,-0.011868238913600001,0.0,0.0,0.0
267,2_9,2,9,0.0,0.0,0.951379596601,0.308020881065,0.0,0.0,-0.0382227106187,0.0,0.0,0.0
268,2_10,2,10,0.0,0.0,0.951567578331,0.30743965890700004,0.0,0.0,0.039618974020300006,0.0,0.0,0.0
269,2_11,2,11,0.0,0.0,0.9514870582080001,0.307688768178,0.0,0.0,-0.000698131700798,0.0,0.0,0.0
270,2_12,2,12,0.0,0.0,0.951406472871,0.30793785636,0.0,0.0,-0.0317649923863,0.0,0.0,0.0
271,2_13,2,13,0.0,0.0,0.9513258223250001,0.308186923436,0.0,0.0,-0.009075712110370001,0.0,0.0,0.0
272,2_14,2,14,0.0,0.0,0.9514870582080001,0.307688768178,0.0,0.0,0.00750491578358,0.0,0.0,0.0
273,2_15,2,15,0.0,0.0,0.9513527130859999,0.308103903424,0.0,0.0,0.0190240888467,0.0,0.0,0.0
274,2_16,2,16,0.0,0.0,0.951379596601,0.308020881065,0.0,0.0,0.0102974425868,0.0,0.0,0.0
275,2_17,2,17,0.0,0.0,0.951110435449,0.308850998993,0.0,0.0,-0.0312413936107,0.0,0.0,0.0
276,2_18,2,18,0.0,0.0,0.951083479494,0.30893399786,0.0,0.0,-0.0034906585039899997,0.0,0.0,0.0
277,2_19,2,19,0.0,0.0,0.9509755832439999,0.309265969796,0.0,0.0,-0.0354301838155,0.0,0.0,0.0
278,2_20,2,20,0.0,0.0,0.9508945850139999,0.30951492401999997,0.0,0.0,-0.0132645023152,0.0,0.0,0.0
279,2_21,2,21,0.0,0.0,0.9510025681700001,0.309182980343,0.0,0.0,-0.021816615649900003,0.0,0.0,0.0
280,2_22,2,22,0.0,0.0,0.951029545854,0.309099988536,0.0,0.0,0.0207694180987,0.0,0.0,0.0
281,2_23,2,23,0.0,0.0,0.951029545854,0.309099988536,0.0,0.0,0.0,0.0,0.0,0.0
282,2_24,2,24,0.0,0.0,0.950759443137,0.309929800577,0.0,0.0,-0.020943951023900002,0.0,0.0,0.0
283,2_25,2,25,0.0,0.0,0.950705335702,0.310095734683,0.0,0.0,-0.0183259571459,0.0,0.0,0.0
284,2_26,2,26,0.0,0.0,0.9505428396410001,0.310593480302,0.0,0.0,0.0136135681656,0.0,0.0,0.0
285,2_27,2,27,0.0,0.0,0.9506782711239999,0.310178698193,0.0,0.0,0.0005235987755980001,0.0,0.0,0.0
286,2_28,2,28,0.0,0.0,0.950786485994,0.309846829984,0.0,0.0,0.011344640138,0.0,0.0,0.0
287,2_29,2,29,0.0,0.0,0.950624120249,0.310344618128,0.0,0.0,-0.0345575191895,0.0,0.0,0.0
288,2_30,2,30,0.0,0.0,0.951056516295,0.309016994375,0.0,0.0,0.0677187749774,0.0,0.0,0.0
289,2_31,2,31,0.0,0.0,0.951137384162,0.308767997774,0.0,0.0,-0.034906585039900004,0.0,0.0,0.0
290,2_32,2,32,0.0,0.0,0.950488616375,0.310759376593,0.0,0.0,-0.07888888219010001,0.0,0.0,0.0
291,2_33,2,33,0.0,0.0,0.9506782711239999,0.310178698193,0.0,0.0,0.08412486994610001,0.0,0.0,0.0
292,2_34,2,34,0.0,0.0,0.950624120249,0.310344618128,0.0,0.0,-0.0504400153826,0.0,0.0,0.0
293,2_35,2,35,0.0,0.0,0.9502714337929999,0.31142286704300004,0.0,0.0,0.010646508437200001,0.0,0.0,0.0
294,2_36,2,36,0.0,0.0,0.9505428396410001,0.310593480302,0.0,0.0,0.08237954069410001,0.0,0.0,0.0
295,2_37,2,37,0.0,0.0,0.950597033952,0.31042757455,0.0,0.0,-0.045378560551899996,0.0,0.0,0.0
296,2_38,2,38,0.0,0.0,0.950461493885,0.310842321189,0.0,0.0,-0.00226892802759,0.0,0.0,0.0
297,2_39,2,39,0.0,0.0,0.950407227189,0.311008203279,0.0,0.0,-0.0204203522483,0.0,0.0,0.0
298,2_40,2,40,0.0,0.0,0.9505428396410001,0.310593480302,0.0,0.0,0.0389208423195,0.0,0.0,0.0
299,2_41,2,41,0.0,0.0,0.950597033952,0.31042757455,0.0,0.0,0.011868238913600001,0.0,0.0,0.0
300,2_42,2,42,0.0,0.0,0.950298606946,0.311339939031,0.0,0.0,-0.00645771823238,0.0,0.0,0.0
301,2_43,2,43,0.0,0.0,0.9503529315420001,0.31117407589400004,0.0,0.0,0.0190240888467,0.0,0.0,0.0
302,2_44,2,44,0.0,0.0,0.9502170657760001,0.311588715952,0.0,0.0,0.00296705972839,0.0,0.0,0.0
303,2_45,2,45,0.0,0.0,0.950488616375,0.310759376593,0.0,0.0,-0.010646508437200001,0.0,0.0,0.0
304,2_46,2,46,0.0,0.0,0.950380082985,0.31109114077100003,0.0,0.0,-0.0380481776935,0.0,0.0,0.0
305,2_47,2,47,0.0,0.0,0.950407227189,0.311008203279,0.0,0.0,0.0179768912955,0.0,0.0,0.0
306,2_48,2,48,0.0,0.0,0.950407227189,0.311008203279,0.0,0.0,-0.010471975512,0.0,0.0,0.0
307,2_49,2,49,0.0,0.0,0.950407227189,0.311008203279,0.0,0.0,0.0335103216383,0.0,0.0,0.0
308,2_50,2,50,0.0,0.0,0.9502170657760001,0.311588715952,0.0,0.0,-0.039793506945500004,0.0,0.0,0.0
309,2_51,2,51,0.0,0.0,0.9501898709119999,0.311671636848,0.0,0.0,-0.0010471975512,0.0,0.0,0.0
310,2_52,2,52,0.0,0.0,0.950081019101,0.312003296688,0.0,0.0,-0.0301941960595,0.0,0.0,0.0
311,2_53,2,53,0.0,0.0,0.9500265497820001,0.312169112355,0.0,0.0,-0.009599310885969999,0.0,0.0,0.0
312,2_54,2,54,0.0,0.0,0.950162668813,0.31175455536999996,0.0,0.0,0.00157079632679,0.0,0.0,0.0
313,2_55,2,55,0.0,0.0,0.949999304271,0.312252016623,0.0,0.0,0.013089969390000001,0.0,0.0,0.0
314,2_56,2,56,0.0,0.0,0.9497810797480001,0.312915165105,0.0,0.0,-0.046774823953400005,0.0,0.0,0.0
315,2_57,2,57,0.0,0.0,0.949999304271,0.312252016623,0.0,0.0,0.020943951023900002,0.0,0.0,0.0
316,2_58,2,58,0.0,0.0,0.9498356792810001,0.31274939227,0.0,0.0,-0.00593411945678,0.0,0.0,0.0
317,2_59,2,59,0.0,0.0,0.9497810797480001,0.312915165105,0.0,0.0,-0.0441568300755,0.0,0.0,0.0
318,2_60,2,60,0.0,0.0,0.9498083831309999,0.312832279878,0.0,0.0,0.034906585039900004,0.0,0.0,0.0
319,2_61,2,61,0.0,0.0,0.9497264512829999,0.313080928408,0.0,0.0,-0.0132645023152,0.0,0.0,0.0
320,2_62,2,62,0.0,0.0,0.9497264512829999,0.313080928408,0.0,0.0,-0.0338593874887,0.0,0.0,0.0
321,2_63,2,63,0.0,0.0,0.9495350238410001,0.313661024833,0.0,0.0,-0.0275762021815,0.0,0.0,0.0
322,2_64,2,64,0.0,0.0,0.949753769132,0.31299804794799996,0.0,0.0,0.0165806278939,0.0,0.0,0.0
323,2_65,2,65,0.0,0.0,0.9495076481370001,0.31374388620099997,0.0,0.0,0.00296705972839,0.0,0.0,0.0
324,2_66,2,66,0.0,0.0,0.9495350238410001,0.313661024833,0.0,0.0,0.006981317007979999,0.0,0.0,0.0
325,2_67,2,67,0.0,0.0,0.94937066116,0.31415815719,0.0,0.0,-0.0181514242207,0.0,0.0,0.0
326,2_68,2,68,0.0,0.0,0.949425477642,0.31399245596700004,0.0,0.0,0.030717794835099996,0.0,0.0,0.0
327,2_69,2,69,0.0,0.0,0.9495076481370001,0.31374388620099997,0.0,0.0,-0.055850536063800006,0.0,0.0,0.0
328,2_70,2,70,0.0,0.0,0.94937066116,0.31415815719,0.0,0.0,-0.0338593874887,0.0,0.0,0.0
329,2_71,2,71,0.0,0.0,0.949425477642,0.31399245596700004,0.0,0.0,-0.0254818070791,0.0,0.0,0.0
330,2_72,2,72,0.0,0.0,0.9493432420739999,0.314241004213,0.0,0.0,-0.033684854563500004,0.0,0.0,0.0
331,2_73,2,73,0.0,0.0,0.949425477642,0.31399245596700004,0.0,0.0,0.00820304748437,0.0,0.0,0.0
332,2_74,2,74,0.0,0.0,0.9493432420739999,0.314241004213,0.0,0.0,0.0179768912955,0.0,0.0,0.0
333,2_75,2,75,0.0,0.0,0.949398073016,0.314075307775,0.0,0.0,0.0280998009571,0.0,0.0,0.0
334,2_76,2,76,0.0,0.0,0.9492609414390001,0.31448953092099996,0.0,0.0,-0.017453292519900004,0.0,0.0,0.0
335,2_77,2,77,0.0,0.0,0.949425477642,0.31399245596700004,0.0,0.0,-0.00558505360638,0.0,0.0,0.0
336,2_78,2,78,0.0,0.0,0.94937066116,0.31415815719,0.0,0.0,0.0198967534727,0.0,0.0,0.0
337,2_79,2,79,0.0,0.0,0.949206038203,0.314655203419,0.0,0.0,-0.0207694180987,0.0,0.0,0.0
338,2_80,2,80,0.0,0.0,0.9493158157580001,0.314323848843,0.0,0.0,0.00942477796077,0.0,0.0,0.0
339,2_81,2,81,0.0,0.0,0.9492609414390001,0.31448953092099996,0.0,0.0,0.0129154364648,0.0,0.0,0.0
340,2_82,2,82,0.0,0.0,0.94909614499,0.314986519655,0.0,0.0,-0.0436332312999,0.0,0.0,0.0
341,2_83,2,83,0.0,0.0,0.949178575742,0.314738036074,0.0,0.0,0.0157079632679,0.0,0.0,0.0
342,2_84,2,84,0.0,0.0,0.949068653617,0.315069342719,0.0,0.0,0.00610865238198,0.0,0.0,0.0
343,2_85,2,85,0.0,0.0,0.949013649188,0.315234981648,0.0,0.0,-0.039968039870699995,0.0,0.0,0.0
344,2_86,2,86,0.0,0.0,0.949068653617,0.315069342719,0.0,0.0,0.0277507351067,0.0,0.0,0.0
345,2_87,2,87,0.0,0.0,0.949013649188,0.315234981648,0.0,0.0,0.00226892802759,0.0,0.0,0.0
346,2_88,2,88,0.0,0.0,0.949068653617,0.315069342719,0.0,0.0,-0.0394444410951,0.0,0.0,0.0
347,2_89,2,89,0.0,0.0,0.948903553606,0.315566230692,0.0,0.0,-0.059515727493,0.0,0.0,0.0
348,2_90,2,90,0.0,0.0,0.949013649188,0.315234981648,0.0,0.0,0.0366519142919,0.0,0.0,0.0
349,2_91,2,91,0.0,0.0,0.9489310883419999,0.315483422034,0.0,0.0,0.0179768912955,0.0,0.0,0.0
350,2_92,2,92,0.0,0.0,0.949013649188,0.315234981648,0.0,0.0,0.0329867228627,0.0,0.0,0.0
351,2_93,2,93,0.0,0.0,0.948848462457,0.315731840798,0.0,0.0,-0.021118483949099997,0.0,0.0,0.0
352,2_94,2,94,0.0,0.0,0.9488760116439999,0.315649036947,0.0,0.0,0.0151843644924,0.0,0.0,0.0
353,2_95,2,95,0.0,0.0,0.948848462457,0.315731840798,0.0,0.0,-0.0300196631343,0.0,0.0,0.0
354,2_96,2,96,0.0,0.0,0.948793342403,0.315897441286,0.0,0.0,-0.00750491578358,0.0,0.0,0.0
355,2_97,2,97,0.0,0.0,0.9487657715379999,0.315980237922,0.0,0.0,-0.0370009801423,0.0,0.0,0.0
356,2_98,2,98,0.0,0.0,0.9486830155930001,0.316228613389,0.0,0.0,-0.0179768912955,0.0,0.0,0.0
357,2_99,2,99,0.0,0.0,0.9488209060430001,0.315814642245,0.0,0.0,0.00715584993318,0.0,0.0,0.0
358,2_100,2,100,0.0,0.0,0.948710608133,0.316145823974,0.0,0.0,0.0158824961931,0.0,0.0,0.0
359,2_101,2,101,0.0,0.0,0.9487657715379999,0.315980237922,0.0,0.0,0.0132645023152,0.0,0.0,0.0
360,2_102,2,102,0.0,0.0,0.948462015203,0.316890841959,0.0,0.0,-0.0020943951023900003,0.0,0.0,0.0
361,2_103,2,103,0.0,0.0,0.948517308642,0.31672529928300003,0.0,0.0,0.0226892802759,0.0,0.0,0.0
362,2_104,2,104,0.0,0.0,0.948462015203,0.316890841959,0.0,0.0,-0.022165681500300002,0.0,0.0,0.0
363,2_105,2,105,0.0,0.0,0.948600194626,0.31647696718199997,0.0,0.0,-0.00279252680319,0.0,0.0,0.0
364,2_106,2,106,0.0,0.0,0.948462015203,0.316890841959,0.0,0.0,0.0164060949687,0.0,0.0,0.0
365,2_107,2,107,0.0,0.0,0.948462015203,0.316890841959,0.0,0.0,-0.0207694180987,0.0,0.0,0.0
366,2_108,2,108,0.0,0.0,0.9484896655339999,0.31680807182799997,0.0,0.0,-0.000872664625997,0.0,0.0,0.0
367,2_109,2,109,0.0,0.0,0.948323655206,0.317304656405,0.0,0.0,0.0232128790515,0.0,0.0,0.0
368,2_110,2,110,0.0,0.0,0.948323655206,0.317304656405,0.0,0.0,-0.0345575191895,0.0,0.0,0.0
369,2_111,2,111,0.0,0.0,0.948212837214,0.31763566446999997,0.0,0.0,-0.0050614548307799994,0.0,0.0,0.0
370,2_112,2,112,0.0,0.0,0.9480463935969999,0.318132103987,0.0,0.0,0.0102974425868,0.0,0.0,0.0
371,2_113,2,113,0.0,0.0,0.948185114662,0.317718410441,0.0,0.0,-0.0312413936107,0.0,0.0,0.0
372,2_114,2,114,0.0,0.0,0.948018627724,0.318214835431,0.0,0.0,0.011344640138,0.0,0.0,0.0
373,2_115,2,115,0.0,0.0,0.947990854631,0.318297564451,0.0,0.0,-0.015533430342700001,0.0,0.0,0.0
374,2_116,2,116,0.0,0.0,0.9479074920370001,0.318545736966,0.0,0.0,0.0150098315672,0.0,0.0,0.0
375,2_117,2,117,0.0,0.0,0.9479074920370001,0.318545736966,0.0,0.0,-0.0167551608191,0.0,0.0,0.0
376,2_118,2,118,0.0,0.0,0.9479074920370001,0.318545736966,0.0,0.0,0.00593411945678,0.0,0.0,0.0
377,2_119,2,119,0.0,0.0,0.947990854631,0.318297564451,0.0,0.0,-0.0134390352404,0.0,0.0,0.0
378,2_120,2,120,0.0,0.0,0.9479074920370001,0.318545736966,0.0,0.0,-0.0151843644924,0.0,0.0,0.0
379,2_121,2,121,0.0,0.0,0.948018627724,0.318214835431,0.0,0.0,0.0012217304764,0.0,0.0,0.0
380,2_122,2,122,0.0,0.0,0.947935286788,0.318463015219,0.0,0.0,-0.0312413936107,0.0,0.0,0.0
381,2_123,2,123,0.0,0.0,0.947963074319,0.31838029104800003,0.0,0.0,0.00174532925199,0.0,0.0,0.0
382,2_124,2,124,0.0,0.0,0.947879690069,0.318628456287,0.0,0.0,-0.0312413936107,0.0,0.0,0.0
383,2_125,2,125,0.0,0.0,0.947824064475,0.318793887648,0.0,0.0,0.014311699866400001,0.0,0.0,0.0
384,2_126,2,126,0.0,0.0,0.947824064475,0.318793887648,0.0,0.0,-0.0188495559215,0.0,0.0,0.0
385,2_127,2,127,0.0,0.0,0.947824064475,0.318793887648,0.0,0.0,0.00418879020479,0.0,0.0,0.0
386,2_128,2,128,0.0,0.0,0.947712726673,0.319124721232,0.0,0.0,-0.0406661715715,0.0,0.0,0.0
387,3_0,3,0,0.0,0.0,0.947796240851,0.318876599687,0.0,0.0,0.0158824961931,0.0,0.0,0.0
388,3_1,3,1,0.0,0.0,0.947545503457,0.319620898688,0.0,0.0,-0.0293215314335,0.0,0.0,0.0
389,3_2,3,2,0.0,0.0,0.9474897046549999,0.31978627170699997,0.0,0.0,-0.0216420827247,0.0,0.0,0.0
390,3_3,3,3,0.0,0.0,0.947517607664,0.319703586415,0.0,0.0,0.0134390352404,0.0,0.0,0.0
391,3_4,3,4,0.0,0.0,0.9474897046549999,0.31978627170699997,0.0,0.0,0.00855211333477,0.0,0.0,0.0
392,3_5,3,5,0.0,0.0,0.947433876991,0.319951634986,0.0,0.0,-0.03403392041390001,0.0,0.0,0.0
393,3_6,3,6,0.0,0.0,0.947350081382,0.32019966162700003,0.0,0.0,0.0232128790515,0.0,0.0,0.0
394,3_7,3,7,0.0,0.0,0.947433876991,0.319951634986,0.0,0.0,-0.0274016692563,0.0,0.0,0.0
395,3_8,3,8,0.0,0.0,0.9474617944310001,0.31986895456500003,0.0,0.0,-0.00471238898038,0.0,0.0,0.0
396,3_9,3,9,0.0,0.0,0.9473221350830001,0.320282332298,0.0,0.0,0.007679448708779999,0.0,0.0,0.0
397,3_10,3,10,0.0,0.0,0.947266220842,0.320447666323,0.0,0.0,-0.0249582083035,0.0,0.0,0.0
398,3_11,3,11,0.0,0.0,0.947294181569,0.32036500053000005,0.0,0.0,-0.014660765716799999,0.0,0.0,0.0
399,3_12,3,12,0.0,0.0,0.947210277746,0.320612990586,0.0,0.0,-0.0301941960595,0.0,0.0,0.0
400,3_13,3,13,0.0,0.0,0.947210277746,0.320612990586,0.0,0.0,0.012391837689200002,0.0,0.0,0.0
401,3_14,3,14,0.0,0.0,0.947154305796,0.320778305082,0.0,0.0,-0.00942477796077,0.0,0.0,0.0
402,3_15,3,15,0.0,0.0,0.947182295378,0.320695649055,0.0,0.0,0.0157079632679,0.0,0.0,0.0
403,3_16,3,16,0.0,0.0,0.9469581767749999,0.321356828837,0.0,0.0,-0.03525565089030001,0.0,0.0,0.0
404,3_17,3,17,0.0,0.0,0.946930129495,0.321439465303,0.0,0.0,0.0050614548307799994,0.0,0.0,0.0
405,3_18,3,18,0.0,0.0,0.946986216842,0.321274189923,0.0,0.0,-0.0204203522483,0.0,0.0,0.0
406,3_19,3,19,0.0,0.0,0.946902075004,0.321522099322,0.0,0.0,-0.0406661715715,0.0,0.0,0.0
407,3_20,3,20,0.0,0.0,0.946705491672,0.322100468858,0.0,0.0,-0.017453292519900004,0.0,0.0,0.0
408,3_21,3,21,0.0,0.0,0.946621133524,0.322348304736,0.0,0.0,-0.028972465583099998,0.0,0.0,0.0
409,3_22,3,22,0.0,0.0,0.946902075004,0.321522099322,0.0,0.0,0.039968039870699995,0.0,0.0,0.0
410,3_23,3,23,0.0,0.0,0.946930129495,0.321439465303,0.0,0.0,-0.00296705972839,0.0,0.0,0.0
411,3_24,3,24,0.0,0.0,0.946649260116,0.322265695231,0.0,0.0,-0.0287979326579,0.0,0.0,0.0
412,3_25,3,25,0.0,0.0,0.946789784933,0.321852610905,0.0,0.0,0.0136135681656,0.0,0.0,0.0
413,3_26,3,26,0.0,0.0,0.946564858714,0.322513516381,0.0,0.0,-0.0207694180987,0.0,0.0,0.0
414,3_27,3,27,0.0,0.0,0.9465367104960001,0.322596118519,0.0,0.0,0.0443313630007,0.0,0.0,0.0
415,3_28,3,28,0.0,0.0,0.947712726673,0.319124721232,0.0,0.0,0.0582939970166,0.0,0.0,0.0
416,3_29,3,29,0.0,0.0,0.9474617944310001,0.31986895456500003,0.0,0.0,-0.07016223593019999,0.0,0.0,0.0
417,3_30,3,30,0.0,0.0,0.946986216842,0.321274189923,0.0,0.0,0.000698131700798,0.0,0.0,0.0
418,3_31,3,31,0.0,0.0,0.947154305796,0.320778305082,0.0,0.0,0.053407075111,0.0,0.0,0.0
419,3_32,3,32,0.0,0.0,0.946902075004,0.321522099322,0.0,0.0,-0.0483456202802,0.0,0.0,0.0
420,3_33,3,33,0.0,0.0,0.9468459443899999,0.321687360013,0.0,0.0,-0.0116937059884,0.0,0.0,0.0
421,3_34,3,34,0.0,0.0,0.9469581767749999,0.321356828837,0.0,0.0,0.025830872929500003,0.0,0.0,0.0
422,3_35,3,35,0.0,0.0,0.947098304995,0.320943609807,0.0,0.0,0.0286233997327,0.0,0.0,0.0
423,3_36,3,36,0.0,0.0,0.947098304995,0.320943609807,0.0,0.0,-0.026529004630299998,0.0,0.0,0.0
424,3_37,3,37,0.0,0.0,0.945177123049,0.3265581205,0.0,0.0,-0.30700341542599996,0.0,0.0,0.0
425,3_38,3,38,0.0,0.0,0.943048609499,0.332654956558,0.0,0.0,-0.21397736629500003,0.0,0.0,0.0
426,3_39,3,39,0.0,0.0,0.939811951086,0.34169210789099996,0.0,0.0,-0.313635666583,0.0,0.0,0.0
427,3_40,3,40,0.0,0.0,0.9388841471320001,0.34423329046499995,0.0,0.0,-0.28064894372099997,0.0,0.0,0.0
428,3_41,3,41,0.0,0.0,0.936885943988,0.349635135474,0.0,0.0,-0.150447381522,0.0,0.0,0.0
429,3_42,3,42,0.0,0.0,0.9348566617649999,0.355025382126,0.0,0.0,-0.222704012554,0.0,0.0,0.0
430,3_43,3,43,0.0,0.0,0.934111048518,0.35698256125100003,0.0,0.0,-0.232652389291,0.0,0.0,0.0
431,3_44,3,44,0.0,0.0,0.929390477022,0.369098010319,0.0,0.0,-0.6679375047380001,0.0,0.0,0.0
432,3_45,3,45,0.0,0.0,0.9217278269700001,0.387837353782,0.0,0.0,-0.560076156965,0.0,0.0,0.0
433,3_46,3,46,0.0,0.0,0.9197530075679999,0.39249764976400003,0.0,0.0,-0.539306738866,0.0,0.0,0.0
434,3_47,3,47,0.0,0.0,0.9129410466140001,0.408091466962,0.0,0.0,-0.526740368252,0.0,0.0,0.0
435,3_48,3,48,0.0,0.0,0.9068969898100001,0.4213524058,0.0,0.0,-0.5056218843029999,0.0,0.0,0.0
436,3_49,3,49,0.0,0.0,0.900546534449,0.434759633927,0.0,0.0,-0.45832346157399995,0.0,0.0,0.0
437,3_50,3,50,0.0,0.0,0.894427590455,0.44721279658999996,0.0,0.0,-0.540877535193,0.0,0.0,0.0
438,3_51,3,51,0.0,0.0,0.8857989397799999,0.464069217127,0.0,0.0,-0.6007423285360001,0.0,0.0,0.0
439,3_52,3,52,0.0,0.0,0.878233497535,0.478232081533,0.0,0.0,-0.557458163087,0.0,0.0,0.0
440,3_53,3,53,0.0,0.0,0.870054729134,0.492955138234,0.0,0.0,-0.47699848456999994,0.0,0.0,0.0
441,3_54,3,54,0.0,0.0,0.863747566902,0.503924737109,0.0,0.0,-0.466875574908,0.0,0.0,0.0
442,3_55,3,55,0.0,0.0,0.8549118706730001,0.5187732581610001,0.0,0.0,-0.568802803225,0.0,0.0,0.0
443,3_56,3,56,0.0,0.0,0.8521382089749999,0.5233167996589999,0.0,0.0,-0.579623844587,0.0,0.0,0.0
444,3_57,3,57,0.0,0.0,0.843906827753,0.5364897632500001,0.0,0.0,-0.540703002268,0.0,0.0,0.0
445,3_58,3,58,0.0,0.0,0.839762038498,0.5429546193720001,0.0,0.0,-0.548906049752,0.0,0.0,0.0
446,3_59,3,59,0.0,0.0,0.83171194639,0.555207383086,0.0,0.0,-0.522202512197,0.0,0.0,0.0
447,3_60,3,60,0.0,0.0,0.8233840587450001,0.567484530014,0.0,0.0,-0.472809694365,0.0,0.0,0.0
448,3_61,3,61,0.0,0.0,0.815178344443,0.579210036818,0.0,0.0,-0.565312144721,0.0,0.0,0.0
449,3_62,3,62,0.0,0.0,0.803856860617,0.594822786751,0.0,0.0,-0.588874089623,0.0,0.0,0.0
450,3_63,3,63,0.0,0.0,0.800679093229,0.599093473229,0.0,0.0,-0.575085988532,0.0,0.0,0.0
451,3_64,3,64,0.0,0.0,0.791223532967,0.611527040186,0.0,0.0,-0.548382450977,0.0,0.0,0.0
452,3_65,3,65,0.0,0.0,0.788118194802,0.6155239321270001,0.0,0.0,-0.534768882811,0.0,0.0,0.0
453,3_66,3,66,0.0,0.0,0.778462301567,0.627691361291,0.0,0.0,-0.45605453354599995,0.0,0.0,0.0
454,3_67,3,67,0.0,0.0,0.775716079622,0.63108205791,0.0,0.0,-0.471587963889,0.0,0.0,0.0
455,3_68,3,68,0.0,0.0,0.7647527435349999,0.6443238636399999,0.0,0.0,-0.589048622548,0.0,0.0,0.0
456,3_69,3,69,0.0,0.0,0.753563392302,0.6573752457940001,0.0,0.0,-0.618893752757,0.0,0.0,0.0
457,3_70,3,70,0.0,0.0,0.7498801825470001,0.6615736631870001,0.0,0.0,-0.600044196836,0.0,0.0,0.0
458,3_71,3,71,0.0,0.0,0.7376898937980001,0.675139704497,0.0,0.0,-0.52970742798,0.0,0.0,0.0
459,3_72,3,72,0.0,0.0,0.7345001938879999,0.6786084770899999,0.0,0.0,-0.50789081233,0.0,0.0,0.0
460,3_73,3,73,0.0,0.0,0.725494500501,0.6882279634990001,0.0,0.0,-0.45570546769599996,0.0,0.0,0.0
461,3_74,3,74,0.0,0.0,0.714350554462,0.699788028863,0.0,0.0,-0.543320996146,0.0,0.0,0.0
462,3_75,3,75,0.0,0.0,0.702774145499,0.711413030818,0.0,0.0,-0.587652359146,0.0,0.0,0.0
463,3_76,3,76,0.0,0.0,0.689493141399,0.724292211723,0.0,0.0,-0.556236432611,0.0,0.0,0.0
464,3_77,3,77,0.0,0.0,0.676618982095,0.7363333165549999,0.0,0.0,-0.510508806208,0.0,0.0,0.0
465,3_78,3,78,0.0,0.0,0.666662570204,0.745359656467,0.0,0.0,-0.483630735728,0.0,0.0,0.0
466,3_79,3,79,0.0,0.0,0.6530241527539999,0.757337082097,0.0,0.0,-0.60388392119,0.0,0.0,0.0
467,3_80,3,80,0.0,0.0,0.640109699485,0.7682835235940001,0.0,0.0,-0.601964059013,0.0,0.0,0.0
468,3_81,3,81,0.0,0.0,0.625106436011,0.780539520881,0.0,0.0,-0.585208898194,0.0,0.0,0.0
469,3_82,3,82,0.0,0.0,0.612493245459,0.7904758214309999,0.0,0.0,-0.545764457099,0.0,0.0,0.0
470,3_83,3,83,0.0,0.0,0.599791969344,0.800155980738,0.0,0.0,-0.479441945523,0.0,0.0,0.0
471,3_84,3,84,0.0,0.0,0.5884204714010001,0.808555099444,0.0,0.0,-0.549953247303,0.0,0.0,0.0
472,3_85,3,85,0.0,0.0,0.572074299514,0.8202018018970001,0.0,0.0,-0.634252650175,0.0,0.0,0.0
473,3_86,3,86,0.0,0.0,0.567340813743,0.823483090938,0.0,0.0,-0.611912435749,0.0,0.0,0.0
474,3_87,3,87,0.0,0.0,0.553900248593,0.832583037666,0.0,0.0,-0.5686282703,0.0,0.0,0.0
475,3_88,3,88,0.0,0.0,0.5438337182540001,0.839192997403,0.0,0.0,-0.147654854719,0.0,0.0,0.0
476,3_89,3,89,0.0,0.0,0.543027900367,0.839714653571,0.0,0.0,-0.0932005820565,0.0,0.0,0.0
477,3_90,3,90,0.0,0.0,0.539579232899,0.841934826114,0.0,0.0,-0.179070781255,0.0,0.0,0.0
478,3_91,3,91,0.0,0.0,0.537152400588,0.8434852094390001,0.0,0.0,-0.23509585024399998,0.0,0.0,0.0
479,3_92,3,92,0.0,0.0,0.5300672684759999,0.847955594881,0.0,0.0,-0.30037116426800003,0.0,0.0,0.0
480,3_93,3,93,0.0,0.0,0.527697266042,0.849432513748,0.0,0.0,-0.303512756922,0.0,0.0,0.0
481,3_94,3,94,0.0,0.0,0.519444544302,0.8545041634739999,0.0,0.0,-0.281696141272,0.0,0.0,0.0
482,3_95,3,95,0.0,0.0,0.517429726276,0.8557257027609999,0.0,0.0,-0.23509585024399998,0.0,0.0,0.0
483,3_96,3,96,0.0,0.0,0.517280366086,0.8558159982510001,0.0,0.0,0.0561996019142,0.0,0.0,0.0
484,3_97,3,97,0.0,0.0,0.517280366086,0.8558159982510001,0.0,0.0,0.0164060949687,0.0,0.0,0.0
485,3_98,3,98,0.0,0.0,0.517205680081,0.8558611362199999,0.0,0.0,-0.027227136331099997,0.0,0.0,0.0
486,3_99,3,99,0.0,0.0,0.516084917685,0.8565374234309999,0.0,0.0,0.0127409035396,0.0,0.0,0.0
487,3_100,3,100,0.0,0.0,0.516084917685,0.8565374234309999,0.0,0.0,-0.0333357887131,0.0,0.0,0.0
488,3_101,3,101,0.0,0.0,0.515112874907,0.857122351887,0.0,0.0,-0.029496064358700003,0.0,0.0,0.0
489,3_102,3,102,0.0,0.0,0.51488846315,0.857257178748,0.0,0.0,-0.0219911485751,0.0,0.0,0.0
490,3_103,3,103,0.0,0.0,0.514738835705,0.8573470306800001,0.0,0.0,0.00855211333477,0.0,0.0,0.0
491,3_104,3,104,0.0,0.0,0.5146640161029999,0.8573919468529999,0.0,0.0,-0.00488692190558,0.0,0.0,0.0
492,3_105,3,105,0.0,0.0,0.513990463377,0.8577958985430001,0.0,0.0,-0.0483456202802,0.0,0.0,0.0
493,3_106,3,106,0.0,0.0,0.5130918999499999,0.85833367766,0.0,0.0,-0.009599310885969999,0.0,0.0,0.0
494,3_107,3,107,0.0,0.0,0.512792253721,0.858512728225,0.0,0.0,-0.0171042266695,0.0,0.0,0.0
495,3_108,3,108,0.0,0.0,0.512417608074,0.858736394323,0.0,0.0,-0.0305432619099,0.0,0.0,0.0
496,3_109,3,109,0.0,0.0,0.5120428648709999,0.858959896931,0.0,0.0,0.0125663706144,0.0,0.0,0.0
497,3_110,3,110,0.0,0.0,0.512117821312,0.858915209491,0.0,0.0,-0.0019198621771900001,0.0,0.0,0.0
498,3_111,3,111,0.0,0.0,0.511593044351,0.859227884191,0.0,0.0,-0.00488692190558,0.0,0.0,0.0
499,3_112,3,112,0.0,0.0,0.5109930655039999,0.8595848340960001,0.0,0.0,-0.0438077642251,0.0,0.0,0.0
500,3_113,3,113,0.0,0.0,0.510768009211,0.859718582308,0.0,0.0,-0.0136135681656,0.0,0.0,0.0
501,3_114,3,114,0.0,0.0,0.510617952234,0.859807715048,0.0,0.0,-0.0469493568786,0.0,0.0,0.0
502,3_115,3,115,0.0,0.0,0.5089662999,0.86078644597,0.0,0.0,-0.0164060949687,0.0,0.0,0.0
503,3_116,3,116,0.0,0.0,0.5088911801739999,0.860830858381,0.0,0.0,-0.00715584993318,0.0,0.0,0.0
504,3_117,3,117,0.0,0.0,0.5085906625209999,0.861008442465,0.0,0.0,-0.0010471975512,0.0,0.0,0.0
505,3_118,3,118,0.0,0.0,0.508515523424,0.861052822095,0.0,0.0,-0.03403392041390001,0.0,0.0,0.0
506,3_119,3,119,0.0,0.0,0.508214928314,0.861230275036,0.0,0.0,-0.035081117965099995,0.0,0.0,0.0
507,3_120,3,120,0.0,0.0,0.507688737887,0.8615405651629999,0.0,0.0,-0.004363323129989999,0.0,0.0,0.0
508,3_121,3,121,0.0,0.0,0.507538362961,0.861629160442,0.0,0.0,0.00418879020479,0.0,0.0,0.0
509,3_122,3,122,0.0,0.0,0.507538362961,0.861629160442,0.0,0.0,-0.0127409035396,0.0,0.0,0.0
510,3_123,3,123,0.0,0.0,0.506334807353,0.8623369775570001,0.0,0.0,-0.03525565089030001,0.0,0.0,0.0
511,3_124,3,124,0.0,0.0,0.506109030711,0.862469506147,0.0,0.0,-0.0240855436775,0.0,0.0,0.0
512,3_125,3,125,0.0,0.0,0.505883219381,0.862601975623,0.0,0.0,-0.015358897417600001,0.0,0.0,0.0
513,3_126,3,126,0.0,0.0,0.505582083675,0.8627785096230001,0.0,0.0,-0.0185004900711,0.0,0.0,0.0
514,3_127,3,127,0.0,0.0,0.5044522764180001,0.86343957566,0.0,0.0,-0.00593411945678,0.0,0.0,0.0
515,3_128,3,128,0.0,0.0,0.5048289749729999,0.8632193846449999,0.0,0.0,-0.0050614548307799994,0.0,0.0,0.0
516,4_0,4,0,0.0,0.0,0.504602967369,0.863351518978,0.0,0.0,-0.0286233997327,0.0,0.0,0.0
517,4_1,4,1,0.0,0.0,0.503246196003,0.8641430820229999,0.0,0.0,-0.030892327760299997,0.0,0.0,0.0
518,4_2,4,2,0.0,0.0,0.5036232016359999,0.863923417193,0.0,0.0,0.0,0.0,0.0,0.0
519,4_3,4,3,0.0,0.0,0.503849358996,0.863791539342,0.0,0.0,0.014311699866400001,0.0,0.0,0.0
520,4_4,4,4,0.0,0.0,0.50256734447,0.8645380640970001,0.0,0.0,-0.0376991118431,0.0,0.0,0.0
521,4_5,4,5,0.0,0.0,0.502491897378,0.864581918079,0.0,0.0,-0.00314159265359,0.0,0.0,0.0
522,4_6,4,6,0.0,0.0,0.502265533143,0.86471344052,0.0,0.0,0.00296705972839,0.0,0.0,0.0
523,4_7,4,7,0.0,0.0,0.5021146045279999,0.8648010892219999,0.0,0.0,-0.027227136331099997,0.0,0.0,0.0
524,4_8,4,8,0.0,0.0,0.500982152693,0.8654576146080001,0.0,0.0,-0.0191986217719,0.0,0.0,0.0
525,4_9,4,9,0.0,0.0,0.5010576762100001,0.8654138923729999,0.0,0.0,-0.013788101090799998,0.0,0.0,0.0
526,4_10,4,10,0.0,0.0,0.500982152693,0.8654576146080001,0.0,0.0,-0.0165806278939,0.0,0.0,0.0
527,4_11,4,11,0.0,0.0,0.500755559253,0.865588741769,0.0,0.0,-0.0324631240871,0.0,0.0,0.0
528,4_12,4,12,0.0,0.0,0.498941577478,0.866635622545,0.0,0.0,-0.0528834763354,0.0,0.0,0.0
529,4_13,4,13,0.0,0.0,0.498790313429,0.866722691078,0.0,0.0,-0.00593411945678,0.0,0.0,0.0
530,4_14,4,14,0.0,0.0,0.499168445052,0.866504970248,0.0,0.0,0.021816615649900003,0.0,0.0,0.0
531,4_15,4,15,0.0,0.0,0.499319671096,0.866417835722,0.0,0.0,0.0190240888467,0.0,0.0,0.0
532,4_16,4,16,0.0,0.0,0.498487739754,0.866896748936,0.0,0.0,-0.0710349005562,0.0,0.0,0.0
533,4_17,4,17,0.0,0.0,0.497352547815,0.867548524973,0.0,0.0,-0.00174532925199,0.0,0.0,0.0
534,4_18,4,18,0.0,0.0,0.49750395601999997,0.867461707365,0.0,0.0,0.0242600766027,0.0,0.0,0.0
535,4_19,4,19,0.0,0.0,0.498033765367,0.867157637662,0.0,0.0,-0.0033161255787899995,0.0,0.0,0.0
536,4_20,4,20,0.0,0.0,0.49727683803000006,0.867591923867,0.0,0.0,-0.024609142453099996,0.0,0.0,0.0
537,4_21,4,21,0.0,0.0,0.49727683803000006,0.867591923867,0.0,0.0,0.010821041362399999,0.0,0.0,0.0
538,4_22,4,22,0.0,0.0,0.49727683803000006,0.867591923867,0.0,0.0,0.00610865238198,0.0,0.0,0.0
539,4_23,4,23,0.0,0.0,0.49727683803000006,0.867591923867,0.0,0.0,-0.0101229096616,0.0,0.0,0.0
540,4_24,4,24,0.0,0.0,0.495686058649,0.8685017738959999,0.0,0.0,-0.0518362787842,0.0,0.0,0.0
541,4_25,4,25,0.0,0.0,0.495382864146,0.868674748056,0.0,0.0,-0.0216420827247,0.0,0.0,0.0
542,4_26,4,26,0.0,0.0,0.495003786139,0.868890816908,0.0,0.0,0.0050614548307799994,0.0,0.0,0.0
543,4_27,4,27,0.0,0.0,0.49432120828599996,0.8692793239450001,0.0,0.0,-0.0256563400043,0.0,0.0,0.0
544,4_28,4,28,0.0,0.0,0.49401774244999996,0.869451821635,0.0,0.0,-0.0298451302091,0.0,0.0,0.0
545,4_29,4,29,0.0,0.0,0.49356243084299994,0.869710369526,0.0,0.0,0.006632251157579999,0.0,0.0,0.0
546,4_30,4,30,0.0,0.0,0.492955138234,0.870054729134,0.0,0.0,-0.0322885911619,0.0,0.0,0.0
547,4_31,4,31,0.0,0.0,0.49310698392200003,0.8699686789799999,0.0,0.0,0.00226892802759,0.0,0.0,0.0
548,4_32,4,32,0.0,0.0,0.492195684643,0.870484582298,0.0,0.0,-0.014835298642,0.0,0.0,0.0
549,4_33,4,33,0.0,0.0,0.491435856222,0.870913772551,0.0,0.0,-0.07731808586330001,0.0,0.0,0.0
550,4_34,4,34,0.0,0.0,0.490371467824,0.8715135245899999,0.0,0.0,0.0033161255787899995,0.0,0.0,0.0
551,4_35,4,35,0.0,0.0,0.490371467824,0.8715135245899999,0.0,0.0,0.00244346095279,0.0,0.0,0.0
552,4_36,4,36,0.0,0.0,0.48976291715400005,0.871855656047,0.0,0.0,-0.0427605666739,0.0,0.0,0.0
553,4_37,4,37,0.0,0.0,0.489382451749,0.872069272432,0.0,0.0,-0.042935099599099996,0.0,0.0,0.0
554,4_38,4,38,0.0,0.0,0.489154127779,0.872197362572,0.0,0.0,0.00715584993318,0.0,0.0,0.0
555,4_39,4,39,0.0,0.0,0.489078012338,0.8722400460009999,0.0,0.0,-0.0158824961931,0.0,0.0,0.0
556,4_40,4,40,0.0,0.0,0.489078012338,0.8722400460009999,0.0,0.0,0.00855211333477,0.0,0.0,0.0
557,4_41,4,41,0.0,0.0,0.48816433669799997,0.872751728945,0.0,0.0,-0.0280998009571,0.0,0.0,0.0
558,4_42,4,42,0.0,0.0,0.488088172883,0.872794325997,0.0,0.0,-0.012217304764,0.0,0.0,0.0
559,4_43,4,43,0.0,0.0,0.487783480459,0.8729646477330001,0.0,0.0,0.0129154364648,0.0,0.0,0.0
560,4_44,4,44,0.0,0.0,0.487783480459,0.8729646477330001,0.0,0.0,-0.013962634016,0.0,0.0,0.0
561,4_45,4,45,0.0,0.0,0.48686904672799997,0.873474974649,0.0,0.0,-0.007853981633970001,0.0,0.0,0.0
562,4_46,4,46,0.0,0.0,0.48686904672799997,0.873474974649,0.0,0.0,0.00453785605519,0.0,0.0,0.0
563,4_47,4,47,0.0,0.0,0.48664035483199997,0.8736024067329999,0.0,0.0,-0.012042771838799999,0.0,0.0,0.0
564,4_48,4,48,0.0,0.0,0.48664035483199997,0.8736024067329999,0.0,0.0,0.000349065850399,0.0,0.0,0.0
565,4_49,4,49,0.0,0.0,0.486335380423,0.873772223035,0.0,0.0,-0.0521853446346,0.0,0.0,0.0
566,4_50,4,50,0.0,0.0,0.486335380423,0.873772223035,0.0,0.0,0.0193731546971,0.0,0.0,0.0
567,4_51,4,51,0.0,0.0,0.486182870995,0.873857091263,0.0,0.0,-0.0287979326579,0.0,0.0,0.0
568,4_52,4,52,0.0,0.0,0.484885943368,0.874577396189,0.0,0.0,-0.0005235987755980001,0.0,0.0,0.0
569,4_53,4,53,0.0,0.0,0.484885943368,0.874577396189,0.0,0.0,0.0,0.0,0.0,0.0
570,4_54,4,54,0.0,0.0,0.483893454972,0.8751269189299999,0.0,0.0,-0.0343829862643,0.0,0.0,0.0
571,4_55,4,55,0.0,0.0,0.484046186062,0.8750424502609999,0.0,0.0,-0.0101229096616,0.0,0.0,0.0
572,4_56,4,56,0.0,0.0,0.484427949268,0.8748311619779999,0.0,0.0,0.0183259571459,0.0,0.0,0.0
573,4_57,4,57,0.0,0.0,0.483053170619,0.875591020029,0.0,0.0,-0.06143558967019999,0.0,0.0,0.0
574,4_58,4,58,0.0,0.0,0.482594646038,0.8758438260420001,0.0,0.0,0.0,0.0,0.0,0.0
575,4_59,4,59,0.0,0.0,0.483053170619,0.875591020029,0.0,0.0,0.0195476876223,0.0,0.0,0.0
576,4_60,4,60,0.0,0.0,0.48205953348200004,0.876138462904,0.0,0.0,-0.0418879020479,0.0,0.0,0.0
577,4_61,4,61,0.0,0.0,0.48160072239699997,0.876390748574,0.0,0.0,-0.0132645023152,0.0,0.0,0.0
578,4_62,4,62,0.0,0.0,0.481906611132,0.8762225848190001,0.0,0.0,0.0111701072128,0.0,0.0,0.0
579,4_63,4,63,0.0,0.0,0.481141779278,0.8766427939779999,0.0,0.0,-0.0382227106187,0.0,0.0,0.0
580,4_64,4,64,0.0,0.0,0.480835743909,0.876810690731,0.0,0.0,-0.0205948851735,0.0,0.0,0.0
581,4_65,4,65,0.0,0.0,0.480453117312,0.8770204114299999,0.0,0.0,0.015358897417600001,0.0,0.0,0.0
582,4_66,4,66,0.0,0.0,0.47999384466000006,0.877271855862,0.0,0.0,-0.0251327412287,0.0,0.0,0.0
583,4_67,4,67,0.0,0.0,0.479917286421,0.877313739887,0.0,0.0,-0.005759586531579999,0.0,0.0,0.0
584,4_68,4,68,0.0,0.0,0.47922809787299997,0.8776903954180001,0.0,0.0,-0.014660765716799999,0.0,0.0,0.0
585,4_69,4,69,0.0,0.0,0.47907490470299996,0.877774023131,0.0,0.0,-0.014137166941200001,0.0,0.0,0.0
586,4_70,4,70,0.0,0.0,0.478385354909,0.8781500169149999,0.0,0.0,-0.0197222205475,0.0,0.0,0.0
587,4_71,4,71,0.0,0.0,0.478461986133,0.878108266574,0.0,0.0,-0.030717794835099996,0.0,0.0,0.0
588,4_72,4,72,0.0,0.0,0.47807879358800004,0.878316951403,0.0,0.0,-0.0513126800086,0.0,0.0,0.0
589,4_73,4,73,0.0,0.0,0.477465496226,0.878650499296,0.0,0.0,-0.020943951023900002,0.0,0.0,0.0
590,4_74,4,74,0.0,0.0,0.476928670128,0.8789420024150001,0.0,0.0,-0.0497418836818,0.0,0.0,0.0
591,4_75,4,75,0.0,0.0,0.47677525854599995,0.879025228784,0.0,0.0,-0.0020943951023900003,0.0,0.0,0.0
592,4_76,4,76,0.0,0.0,0.47677525854599995,0.879025228784,0.0,0.0,-0.00366519142919,0.0,0.0,0.0
593,4_77,4,77,0.0,0.0,0.47639166606100003,0.879233177551,0.0,0.0,-0.021816615649900003,0.0,0.0,0.0
594,4_78,4,78,0.0,0.0,0.476314936678,0.879274747219,0.0,0.0,-0.00523598775598,0.0,0.0,0.0
595,4_79,4,79,0.0,0.0,0.475931235364,0.8794824951100001,0.0,0.0,-0.0286233997327,0.0,0.0,0.0
596,4_80,4,80,0.0,0.0,0.475854484226,0.879524024596,0.0,0.0,0.00261799387799,0.0,0.0,0.0
597,4_81,4,81,0.0,0.0,0.47570097107799997,0.879607063475,0.0,0.0,0.00523598775598,0.0,0.0,0.0
598,4_82,4,82,0.0,0.0,0.474933188073,0.880021855903,0.0,0.0,-0.0335103216383,0.0,0.0,0.0
599,4_83,4,83,0.0,0.0,0.47477958805200005,0.880104733977,0.0,0.0,-0.013962634016,0.0,0.0,0.0
600,4_84,4,84,0.0,0.0,0.47462597356700004,0.8801875852429999,0.0,0.0,-0.00942477796077,0.0,0.0,0.0
601,4_85,4,85,0.0,0.0,0.47378083559399997,0.880642787868,0.0,0.0,-0.0280998009571,0.0,0.0,0.0
602,4_86,4,86,0.0,0.0,0.473703983209,0.880684129692,0.0,0.0,0.00174532925199,0.0,0.0,0.0
603,4_87,4,87,0.0,0.0,0.473550267618,0.8807667932200001,0.0,0.0,-0.0033161255787899995,0.0,0.0,0.0
604,4_88,4,88,0.0,0.0,0.473089034311,0.881014622815,0.0,0.0,-0.032637657012299995,0.0,0.0,0.0
605,4_89,4,89,0.0,0.0,0.47301214948,0.881055904267,0.0,0.0,0.00715584993318,0.0,0.0,0.0
606,4_90,4,90,0.0,0.0,0.472781473377,0.8811797083640001,0.0,0.0,-0.014137166941200001,0.0,0.0,0.0
607,4_91,4,91,0.0,0.0,0.472473854835,0.881344686543,0.0,0.0,-0.0251327412287,0.0,0.0,0.0
608,4_92,4,92,0.0,0.0,0.472243103147,0.881468349704,0.0,0.0,-0.0286233997327,0.0,0.0,0.0
609,4_93,4,93,0.0,0.0,0.472012319092,0.8815919524510001,0.0,0.0,0.0109955742876,0.0,0.0,0.0
610,4_94,4,94,0.0,0.0,0.47124280534900004,0.882003525167,0.0,0.0,-0.027052603405900003,0.0,0.0,0.0
611,4_95,4,95,0.0,0.0,0.47124280534900004,0.882003525167,0.0,0.0,0.00872664625997,0.0,0.0,0.0
612,4_96,4,96,0.0,0.0,0.470703932165,0.882291226435,0.0,0.0,-0.045553093477099994,0.0,0.0,0.0
613,4_97,4,97,0.0,0.0,0.470549936128,0.882373366331,0.0,0.0,0.005759586531579999,0.0,0.0,0.0
614,4_98,4,98,0.0,0.0,0.470780924807,0.882250146408,0.0,0.0,-0.0181514242207,0.0,0.0,0.0
615,4_99,4,99,0.0,0.0,0.470626935939,0.882332299742,0.0,0.0,-0.015358897417600001,0.0,0.0,0.0
616,4_100,4,100,0.0,0.0,0.470164883336,0.88257859847,0.0,0.0,-0.058643062867,0.0,0.0,0.0
617,4_101,4,101,0.0,0.0,0.46977974103,0.8827836625799999,0.0,0.0,-0.0476474885794,0.0,0.0,0.0
618,4_102,4,102,0.0,0.0,0.469702701834,0.8828246552339999,0.0,0.0,0.00855211333477,0.0,0.0,0.0
619,4_103,4,103,0.0,0.0,0.469856776649,0.882742663202,0.0,0.0,0.0185004900711,0.0,0.0,0.0
620,4_104,4,104,0.0,0.0,0.469856776649,0.882742663202,0.0,0.0,-0.0019198621771900001,0.0,0.0,0.0
621,4_105,4,105,0.0,0.0,0.46885503472400003,0.883275130644,0.0,0.0,-0.015358897417600001,0.0,0.0,0.0
622,4_106,4,106,0.0,0.0,0.46885503472400003,0.883275130644,0.0,0.0,0.008028514559169999,0.0,0.0,0.0
623,4_107,4,107,0.0,0.0,0.46885503472400003,0.883275130644,0.0,0.0,-0.00488692190558,0.0,0.0,0.0
624,4_108,4,108,0.0,0.0,0.46862377777099995,0.883397846334,0.0,0.0,-0.0312413936107,0.0,0.0,0.0
625,4_109,4,109,0.0,0.0,0.467929814261,0.883765630089,0.0,0.0,0.0005235987755980001,0.0,0.0,0.0
626,4_110,4,110,0.0,0.0,0.467852689379,0.883806461303,0.0,0.0,-0.014311699866400001,0.0,0.0,0.0
627,4_111,4,111,0.0,0.0,0.467852689379,0.883806461303,0.0,0.0,-0.0158824961931,0.0,0.0,0.0
628,4_112,4,112,0.0,0.0,0.46692691305699996,0.8842959108030001,0.0,0.0,-0.0169296937443,0.0,0.0,0.0
629,4_113,4,113,0.0,0.0,0.466541021741,0.8844995619179999,0.0,0.0,-0.0212930168743,0.0,0.0,0.0
630,4_114,4,114,0.0,0.0,0.466463832817,0.884540271935,0.0,0.0,-0.00680678408278,0.0,0.0,0.0
631,4_115,4,115,0.0,0.0,0.465614520325,0.884987637463,0.0,0.0,-0.0254818070791,0.0,0.0,0.0
632,4_116,4,116,0.0,0.0,0.465460053753,0.885068889048,0.0,0.0,0.0,0.0,0.0,0.0
633,4_117,4,117,0.0,0.0,0.466000624692,0.884784390564,0.0,0.0,0.0162315620435,0.0,0.0,0.0
634,4_118,4,118,0.0,0.0,0.465614520325,0.884987637463,0.0,0.0,-0.0509636141582,0.0,0.0,0.0
635,4_119,4,119,0.0,0.0,0.464301102841,0.885677416389,0.0,0.0,-0.0198967534727,0.0,0.0,0.0
636,4_120,4,120,0.0,0.0,0.464378391008,0.8856368951010001,0.0,0.0,0.0134390352404,0.0,0.0,0.0
637,4_121,4,121,0.0,0.0,0.46445567563900003,0.88559636707,0.0,0.0,0.014835298642,0.0,0.0,0.0
638,4_122,4,122,0.0,0.0,0.4637599867,0.8859608765270001,0.0,0.0,-0.0532325421858,0.0,0.0,0.0
639,4_123,4,123,0.0,0.0,0.463141356361,0.886284426145,0.0,0.0,-0.00733038285838,0.0,0.0,0.0
640,4_124,4,124,0.0,0.0,0.46329603511999995,0.8862035792309999,0.0,0.0,0.0317649923863,0.0,0.0,0.0
641,4_125,4,125,0.0,0.0,0.46399191482,0.8858394340860001,0.0,0.0,0.0134390352404,0.0,0.0,0.0
642,4_126,4,126,0.0,0.0,0.46306401169100003,0.886324839478,0.0,0.0,-0.0443313630007,0.0,0.0,0.0
643,4_127,4,127,0.0,0.0,0.462831956524,0.886446038978,0.0,0.0,-0.0237364778271,0.0,0.0,0.0
644,4_128,4,128,0.0,0.0,0.462599869636,0.886567177721,0.0,0.0,0.0033161255787899995,0.0,0.0,0.0
645,5_0,5,0,0.0,0.0,0.462677235456,0.886526804891,0.0,0.0,0.013962634016,0.0,0.0,0.0
646,5_1,5,1,0.0,0.0,0.462367751041,0.886688255701,0.0,0.0,-0.0401425727959,0.0,0.0,0.0
647,5_2,5,2,0.0,0.0,0.461748613235,0.887010833178,0.0,0.0,-0.00872664625997,0.0,0.0,0.0
648,5_3,5,3,0.0,0.0,0.46213560075599996,0.8868092729070001,0.0,0.0,0.0178023583703,0.0,0.0,0.0
649,5_4,5,4,0.0,0.0,0.461826017774,0.886970534633,0.0,0.0,-0.0436332312999,0.0,0.0,0.0
650,5_5,5,5,0.0,0.0,0.461051814212,0.887373216077,0.0,0.0,-0.0240855436775,0.0,0.0,0.0
651,5_6,5,6,0.0,0.0,0.46143895991899997,0.887171959808,0.0,0.0,0.0183259571459,0.0,0.0,0.0
652,5_7,5,7,0.0,0.0,0.46159379360799996,0.887091410004,0.0,0.0,-0.004014257279590001,0.0,0.0,0.0
653,5_8,5,8,0.0,0.0,0.460896931348,0.887453671283,0.0,0.0,-0.00942477796077,0.0,0.0,0.0
654,5_9,5,9,0.0,0.0,0.461206683033,0.8872927338400001,0.0,0.0,0.006632251157579999,0.0,0.0,0.0
655,5_10,5,10,0.0,0.0,0.461051814212,0.887373216077,0.0,0.0,-0.009599310885969999,0.0,0.0,0.0
656,5_11,5,11,0.0,0.0,0.46035473078999994,0.8877350516,0.0,0.0,-0.027052603405900003,0.0,0.0,0.0
657,5_12,5,12,0.0,0.0,0.460199784784,0.8878153851360001,0.0,0.0,-0.006632251157579999,0.0,0.0,0.0
658,5_13,5,13,0.0,0.0,0.460509662773,0.887654691022,0.0,0.0,0.0165806278939,0.0,0.0,0.0
659,5_14,5,14,0.0,0.0,0.46035473078999994,0.8877350516,0.0,0.0,-0.0322885911619,0.0,0.0,0.0
660,5_15,5,15,0.0,0.0,0.460044824759,0.887895691628,0.0,0.0,-0.0390953752447,0.0,0.0,0.0
661,5_16,5,16,0.0,0.0,0.459657363398,0.8880963395229999,0.0,0.0,0.00226892802759,0.0,0.0,0.0
662,5_17,5,17,0.0,0.0,0.459812358448,0.8880161006530001,0.0,0.0,0.013089969390000001,0.0,0.0,0.0
663,5_18,5,18,0.0,0.0,0.45988985072099997,0.887975971074,0.0,0.0,0.006632251157579999,0.0,0.0,0.0
664,5_19,5,19,0.0,0.0,0.45950235434500003,0.8881765513400001,0.0,0.0,-0.042411500823499995,0.0,0.0,0.0
665,5_20,5,20,0.0,0.0,0.459579860621,0.888136448814,0.0,0.0,0.0109955742876,0.0,0.0,0.0
666,5_21,5,21,0.0,0.0,0.45950235434500003,0.8881765513400001,0.0,0.0,-0.015533430342700001,0.0,0.0,0.0
667,5_22,5,22,0.0,0.0,0.459347331296,0.8882567361020001,0.0,0.0,-0.0034906585039899997,0.0,0.0,0.0
668,5_23,5,23,0.0,0.0,0.459269814524,0.888296818337,0.0,0.0,-0.0190240888467,0.0,0.0,0.0
669,5_24,5,24,0.0,0.0,0.458804640463,0.888537169673,0.0,0.0,0.0197222205475,0.0,0.0,0.0
670,5_25,5,25,0.0,0.0,0.458804640463,0.888537169673,0.0,0.0,-0.0312413936107,0.0,0.0,0.0
671,5_26,5,26,0.0,0.0,0.458494454534,0.8886972685690001,0.0,0.0,-0.0207694180987,0.0,0.0,0.0
672,5_27,5,27,0.0,0.0,0.457796331992,0.8890570951369999,0.0,0.0,-0.00453785605519,0.0,0.0,0.0
673,5_28,5,28,0.0,0.0,0.457873915117,0.889017141486,0.0,0.0,-0.0207694180987,0.0,0.0,0.0
674,5_29,5,29,0.0,0.0,0.457873915117,0.889017141486,0.0,0.0,0.0013962634016,0.0,0.0,0.0
675,5_30,5,30,0.0,0.0,0.457020309098,0.889456259224,0.0,0.0,-0.0160570291183,0.0,0.0,0.0
676,5_31,5,31,0.0,0.0,0.45686506273500005,0.889536010768,0.0,0.0,-0.0317649923863,0.0,0.0,0.0
677,5_32,5,32,0.0,0.0,0.45694268765600005,0.889496138383,0.0,0.0,0.010471975512,0.0,0.0,0.0
678,5_33,5,33,0.0,0.0,0.45647688595200003,0.889735271073,0.0,0.0,-0.005410520681180001,0.0,0.0,0.0
679,5_34,5,34,0.0,0.0,0.45624393816200004,0.88985474595,0.0,0.0,-0.029496064358700003,0.0,0.0,0.0
680,5_35,5,35,0.0,0.0,0.455933292469,0.890013950912,0.0,0.0,-0.0125663706144,0.0,0.0,0.0
681,5_36,5,36,0.0,0.0,0.456166281949,0.889894557357,0.0,0.0,-0.0202458193231,0.0,0.0,0.0
682,5_37,5,37,0.0,0.0,0.45507873047499997,0.8904512053270001,0.0,0.0,-0.00680678408278,0.0,0.0,0.0
683,5_38,5,38,0.0,0.0,0.45500102221600003,0.890490915048,0.0,0.0,-0.00471238898038,0.0,0.0,0.0
684,5_39,5,39,0.0,0.0,0.45484559530199997,0.890570314144,0.0,0.0,0.015533430342700001,0.0,0.0,0.0
685,5_40,5,40,0.0,0.0,0.45484559530199997,0.890570314144,0.0,0.0,-0.041713369122699996,0.0,0.0,0.0
686,5_41,5,41,0.0,0.0,0.454456967411,0.8907686931919999,0.0,0.0,-0.0497418836818,0.0,0.0,0.0
687,5_42,5,42,0.0,0.0,0.45414600279899997,0.8909272743279999,0.0,0.0,0.012391837689200002,0.0,0.0,0.0
688,5_43,5,43,0.0,0.0,0.45414600279899997,0.8909272743279999,0.0,0.0,-0.010646508437200001,0.0,0.0,0.0
689,5_44,5,44,0.0,0.0,0.454379231448,0.890808348652,0.0,0.0,0.00942477796077,0.0,0.0,0.0
690,5_45,5,45,0.0,0.0,0.454223749141,0.8908876392209999,0.0,0.0,-0.030717794835099996,0.0,0.0,0.0
691,5_46,5,46,0.0,0.0,0.453757219222,0.8911253480879999,0.0,0.0,0.017453292519900004,0.0,0.0,0.0
692,5_47,5,47,0.0,0.0,0.453757219222,0.8911253480879999,0.0,0.0,-0.011344640138,0.0,0.0,0.0
693,5_48,5,48,0.0,0.0,0.45313498583899997,0.891441913199,0.0,0.0,0.014835298642,0.0,0.0,0.0
694,5_49,5,49,0.0,0.0,0.45259035045199997,0.891718551269,0.0,0.0,-0.0485201532054,0.0,0.0,0.0
695,5_50,5,50,0.0,0.0,0.45227905438999993,0.891876480775,0.0,0.0,-0.005410520681180001,0.0,0.0,0.0
696,5_51,5,51,0.0,0.0,0.45227905438999993,0.891876480775,0.0,0.0,0.010646508437200001,0.0,0.0,0.0
697,5_52,5,52,0.0,0.0,0.452123385691,0.891955404777,0.0,0.0,-0.0333357887131,0.0,0.0,0.0
698,5_53,5,53,0.0,0.0,0.45196770321999996,0.892034301609,0.0,0.0,0.007679448708779999,0.0,0.0,0.0
699,5_54,5,54,0.0,0.0,0.45157843681800003,0.8922314248000001,0.0,0.0,-0.00418879020479,0.0,0.0,0.0
700,5_55,5,55,0.0,0.0,0.451266961791,0.8923890010500001,0.0,0.0,-0.0301941960595,0.0,0.0,0.0
701,5_56,5,56,0.0,0.0,0.45103331943499997,0.8925071118819999,0.0,0.0,0.00837758040957,0.0,0.0,0.0
702,5_57,5,57,0.0,0.0,0.451266961791,0.8923890010500001,0.0,0.0,0.0125663706144,0.0,0.0,0.0
703,5_58,5,58,0.0,0.0,0.45142270618,0.892310226516,0.0,0.0,0.0005235987755980001,0.0,0.0,0.0
704,5_59,5,59,0.0,0.0,0.451266961791,0.8923890010500001,0.0,0.0,-0.0116937059884,0.0,0.0,0.0
705,5_60,5,60,0.0,0.0,0.450877540689,0.892585818452,0.0,0.0,-0.0101229096616,0.0,0.0,0.0
706,5_61,5,61,0.0,0.0,0.450799646166,0.892625161541,0.0,0.0,-0.00750491578358,0.0,0.0,0.0
707,5_62,5,62,0.0,0.0,0.450799646166,0.892625161541,0.0,0.0,-0.00174532925199,0.0,0.0,0.0
708,5_63,5,63,0.0,0.0,0.450565941999,0.8927431500220001,0.0,0.0,-0.0212930168743,0.0,0.0,0.0
709,5_64,5,64,0.0,0.0,0.450332206951,0.892861077314,0.0,0.0,-0.029670597283900004,0.0,0.0,0.0
710,5_65,5,65,0.0,0.0,0.449864644275,0.8930967483040001,0.0,0.0,-0.0132645023152,0.0,0.0,0.0
711,5_66,5,66,0.0,0.0,0.448461216762,0.893802291931,0.0,0.0,-0.050090949532199995,0.0,0.0,0.0
712,5_67,5,67,0.0,0.0,0.448227204503,0.893919668171,0.0,0.0,-0.017278759594700002,0.0,0.0,0.0
713,5_68,5,68,0.0,0.0,0.44830521200400003,0.893880549565,0.0,0.0,0.00645771823238,0.0,0.0,0.0
714,5_69,5,69,0.0,0.0,0.44830521200400003,0.893880549565,0.0,0.0,-0.008028514559169999,0.0,0.0,0.0
715,5_70,5,70,0.0,0.0,0.448149193589,0.8939587799700001,0.0,0.0,-0.021816615649900003,0.0,0.0,0.0
716,5_71,5,71,0.0,0.0,0.44760302166500004,0.894232371924,0.0,0.0,-0.00715584993318,0.0,0.0,0.0
717,5_72,5,72,0.0,0.0,0.447681056457,0.894193307786,0.0,0.0,0.014660765716799999,0.0,0.0,0.0
718,5_73,5,73,0.0,0.0,0.447759087839,0.894154236839,0.0,0.0,-0.0134390352404,0.0,0.0,0.0
719,5_74,5,74,0.0,0.0,0.447524983465,0.894271429251,0.0,0.0,-0.0179768912955,0.0,0.0,0.0
720,5_75,5,75,0.0,0.0,0.447056682715,0.8945056301890001,0.0,0.0,0.00418879020479,0.0,0.0,0.0
721,5_76,5,76,0.0,0.0,0.447056682715,0.8945056301890001,0.0,0.0,-0.010821041362399999,0.0,0.0,0.0
722,5_77,5,77,0.0,0.0,0.446588259403,0.8947395858930001,0.0,0.0,-0.0394444410951,0.0,0.0,0.0
723,5_78,5,78,0.0,0.0,0.446275909167,0.89489542009,0.0,0.0,-0.0010471975512,0.0,0.0,0.0
724,5_79,5,79,0.0,0.0,0.446432091084,0.89481751662,0.0,0.0,-0.00174532925199,0.0,0.0,0.0
725,5_80,5,80,0.0,0.0,0.44635400182499996,0.894856471762,0.0,0.0,-0.0207694180987,0.0,0.0,0.0
726,5_81,5,81,0.0,0.0,0.445729165431,0.895167867544,0.0,0.0,-0.00157079632679,0.0,0.0,0.0
727,5_82,5,82,0.0,0.0,0.44604161080300003,0.895012224181,0.0,0.0,0.012391837689200002,0.0,0.0,0.0
728,5_83,5,83,0.0,0.0,0.445572922377,0.895245648325,0.0,0.0,-0.014311699866400001,0.0,0.0,0.0
729,5_84,5,84,0.0,0.0,0.44549479575900003,0.8952845284890001,0.0,0.0,-0.012217304764,0.0,0.0,0.0
730,5_85,5,85,0.0,0.0,0.445104111795,0.895478827032,0.0,0.0,0.0190240888467,0.0,0.0,0.0
731,5_86,5,86,0.0,0.0,0.445338532347,0.895362268362,0.0,0.0,-0.0167551608191,0.0,0.0,0.0
732,5_87,5,87,0.0,0.0,0.445338532347,0.895362268362,0.0,0.0,0.004363323129989999,0.0,0.0,0.0
733,5_88,5,88,0.0,0.0,0.445104111795,0.895478827032,0.0,0.0,-0.0277507351067,0.0,0.0,0.0
734,5_89,5,89,0.0,0.0,0.444869660735,0.895595324327,0.0,0.0,-0.0101229096616,0.0,0.0,0.0
735,5_90,5,90,0.0,0.0,0.44518225536899997,0.895439980961,0.0,0.0,0.010471975512,0.0,0.0,0.0
736,5_91,5,91,0.0,0.0,0.445104111795,0.895478827032,0.0,0.0,-0.014660765716799999,0.0,0.0,0.0
737,5_92,5,92,0.0,0.0,0.444947814477,0.8955564987160001,0.0,0.0,-0.028972465583099998,0.0,0.0,0.0
738,5_93,5,93,0.0,0.0,0.444635179185,0.895711760239,0.0,0.0,-0.032637657012299995,0.0,0.0,0.0
739,5_94,5,94,0.0,0.0,0.444947814477,0.8955564987160001,0.0,0.0,0.014311699866400001,0.0,0.0,0.0
740,5_95,5,95,0.0,0.0,0.444869660735,0.895595324327,0.0,0.0,-0.015533430342700001,0.0,0.0,0.0
741,5_96,5,96,0.0,0.0,0.444713343089,0.89567295509,0.0,0.0,-0.012042771838799999,0.0,0.0,0.0
742,5_97,5,97,0.0,0.0,0.444244308887,0.895905683664,0.0,0.0,-0.024609142453099996,0.0,0.0,0.0
743,5_98,5,98,0.0,0.0,0.444244308887,0.895905683664,0.0,0.0,0.00837758040957,0.0,0.0,0.0
744,5_99,5,99,0.0,0.0,0.444322489715,0.895866912623,0.0,0.0,-0.0249582083035,0.0,0.0,0.0
745,5_100,5,100,0.0,0.0,0.44416612467600003,0.895944447882,0.0,0.0,-0.00994837673637,0.0,0.0,0.0
746,5_101,5,101,0.0,0.0,0.442366955446,0.8968341411480001,0.0,0.0,-0.19442967867199998,0.0,0.0,0.0
747,5_102,5,102,0.0,0.0,0.43342316831600003,0.9011905221240001,0.0,0.0,-0.21240656996800003,0.0,0.0,0.0
748,5_103,5,103,0.0,0.0,0.42822552330200003,0.9036718990829999,0.0,0.0,-0.243822496504,0.0,0.0,0.0
749,5_104,5,104,0.0,0.0,0.418738986386,0.908106635413,0.0,0.0,-0.560425222815,0.0,0.0,0.0
750,5_105,5,105,0.0,0.0,0.402187482785,0.9155573322799998,0.0,0.0,-0.605454717517,0.0,0.0,0.0
751,5_106,5,106,0.0,0.0,0.385664509195,0.922639087806,0.0,0.0,-0.525867703626,0.0,0.0,0.0
752,5_107,5,107,0.0,0.0,0.371772928554,0.928323698714,0.0,0.0,-0.569850000776,0.0,0.0,0.0
753,5_108,5,108,0.0,0.0,0.35600416689000003,0.9344843675299999,0.0,0.0,-0.47874381382200004,0.0,0.0,0.0
754,5_109,5,109,0.0,0.0,0.343495786485,0.939154217723,0.0,0.0,-0.48834312470799995,0.0,0.0,0.0
755,5_110,5,110,0.0,0.0,0.337013098336,0.941499958338,0.0,0.0,-0.506145483078,0.0,0.0,0.0
756,5_111,5,111,0.0,0.0,0.32193523267499996,0.9467616943889999,0.0,0.0,-0.591666616426,0.0,0.0,0.0
757,5_112,5,112,0.0,0.0,0.30453183161200004,0.9525021593340001,0.0,0.0,-0.542622864445,0.0,0.0,0.0
758,5_113,5,113,0.0,0.0,0.299790158549,0.9540051681399999,0.0,0.0,-0.530231026756,0.0,0.0,0.0
759,5_114,5,114,0.0,0.0,0.286273720013,0.9581478785809999,0.0,0.0,-0.523424242673,0.0,0.0,0.0
760,5_115,5,115,0.0,0.0,0.270180366714,0.9628097265000001,0.0,0.0,-0.537735942539,0.0,0.0,0.0
761,5_116,5,116,0.0,0.0,0.265303708803,0.964164893623,0.0,0.0,-0.536863277913,0.0,0.0,0.0
762,5_117,5,117,0.0,0.0,0.248098167018,0.96873489641,0.0,0.0,-0.555712833835,0.0,0.0,0.0
763,5_118,5,118,0.0,0.0,0.24302250527,0.9700206502609999,0.0,0.0,-0.574038790981,0.0,0.0,0.0
764,5_119,5,119,0.0,0.0,0.227331215647,0.9738174974770001,0.0,0.0,-0.581194640914,0.0,0.0,0.0
765,5_120,5,120,0.0,0.0,0.22222922625100003,0.9749944466509999,0.0,0.0,-0.565137611796,0.0,0.0,0.0
766,5_121,5,121,0.0,0.0,0.20620418539700003,0.9785089851019999,0.0,0.0,-0.47769661627099996,0.0,0.0,0.0
767,5_122,5,122,0.0,0.0,0.201847215651,0.97941702126,0.0,0.0,-0.478918346747,0.0,0.0,0.0
768,5_123,5,123,0.0,0.0,0.185237852011,0.982693715347,0.0,0.0,-0.552222175331,0.0,0.0,0.0
769,5_124,5,124,0.0,0.0,0.170467472515,0.985363303972,0.0,0.0,-0.554491103359,0.0,0.0,0.0
770,5_125,5,125,0.0,0.0,0.165047605861,0.986285601537,0.0,0.0,-0.592364748127,0.0,0.0,0.0
771,5_126,5,126,0.0,0.0,0.14591036574400001,0.9892978141940001,0.0,0.0,-0.596553538332,0.0,0.0,0.0
772,5_127,5,127,0.0,0.0,0.14055563990999997,0.990072781208,0.0,0.0,-0.580321976288,0.0,0.0,0.0
773,5_128,5,128,0.0,0.0,0.12671836439,0.991938736075,0.0,0.0,-0.438426708101,0.0,0.0,0.0
774,6_0,6,0,0.0,0.0,0.111035308554,0.9938164620559999,0.0,0.0,-0.551698576555,0.0,0.0,0.0
775,6_1,6,1,0.0,0.0,0.0947164499188,0.9955042913590001,0.0,0.0,-0.58206730554,0.0,0.0,0.0
776,6_2,6,2,0.0,0.0,0.07663201856810001,0.9970594434289999,0.0,0.0,-0.550476846079,0.0,0.0,0.0
777,6_3,6,3,0.0,0.0,0.061658253958,0.998097319763,0.0,0.0,-0.540877535193,0.0,0.0,0.0
778,6_4,6,4,0.0,0.0,0.04353220379509999,0.999052024287,0.0,0.0,-0.554665636284,0.0,0.0,0.0
779,6_5,6,5,0.0,0.0,0.028008871055900005,0.999607674611,0.0,0.0,-0.576656784859,0.0,0.0,0.0
780,6_6,6,6,0.0,0.0,0.0089010616441,0.999960384766,0.0,0.0,-0.591317550576,0.0,0.0,0.0
781,6_7,6,7,0.0,0.0,-0.007417581299439999,0.9999724893649999,0.0,0.0,-0.595680873706,0.0,0.0,0.0
782,6_8,6,8,0.0,0.0,-0.026089711649700004,0.999659605539,0.0,0.0,-0.5471607205,0.0,0.0,0.0
783,6_9,6,9,0.0,0.0,-0.042398787455599996,0.9991007671009999,0.0,0.0,-0.515570261039,0.0,0.0,0.0
784,6_10,6,10,0.0,0.0,-0.0575640269596,0.998341816614,0.0,0.0,-0.575260521457,0.0,0.0,0.0
785,6_11,6,11,0.0,0.0,-0.0771540671435,0.997019182325,0.0,0.0,-0.60423298704,0.0,0.0,0.0
786,6_12,6,12,0.0,0.0,-0.09358702541649999,0.995611103129,0.0,0.0,-0.583812634792,0.0,0.0,0.0
787,6_13,6,13,0.0,0.0,-0.112596254176,0.993640822202,0.0,0.0,-0.5667084081229999,0.0,0.0,0.0
788,6_14,6,14,0.0,0.0,-0.117710718809,0.993047927684,0.0,0.0,-0.548207918051,0.0,0.0,0.0
789,6_15,6,15,0.0,0.0,-0.12723772490399998,0.9918722505249999,0.0,0.0,-0.16877333866799998,0.0,0.0,0.0
790,6_16,6,16,0.0,0.0,-0.13381322418199998,0.991006569622,0.0,0.0,-0.258657795146,0.0,0.0,0.0
791,6_17,6,17,0.0,0.0,-0.136061400396,0.990700406441,0.0,0.0,-0.238761041673,0.0,0.0,0.0
792,6_18,6,18,0.0,0.0,-0.142974422091,0.989726383718,0.0,0.0,-0.260577657323,0.0,0.0,0.0
793,6_19,6,19,0.0,0.0,-0.146600990296,0.989195708464,0.0,0.0,-0.267733507256,0.0,0.0,0.0
794,6_20,6,20,0.0,0.0,-0.15522765964500002,0.987878724177,0.0,0.0,-0.334754150533,0.0,0.0,0.0
795,6_21,6,21,0.0,0.0,-0.158071898542,0.987427604886,0.0,0.0,-0.300720230119,0.0,0.0,0.0
796,6_22,6,22,0.0,0.0,-0.166424559018,0.986054190273,0.0,0.0,-0.27070056698399997,0.0,0.0,0.0
797,6_23,6,23,0.0,0.0,-0.168833444713,0.9856445951489999,0.0,0.0,-0.252200076913,0.0,0.0,0.0
798,6_24,6,24,0.0,0.0,-0.16977951766899999,0.985482072582,0.0,0.0,0.0745255590602,0.0,0.0,0.0
799,6_25,6,25,0.0,0.0,-0.170037510451,0.9854375906370001,0.0,0.0,-0.00471238898038,0.0,0.0,0.0
800,6_26,6,26,0.0,0.0,-0.17089740212299998,0.985288829708,0.0,0.0,-0.055152404363,0.0,0.0,0.0
801,6_27,6,27,0.0,0.0,-0.171069364861,0.9852589874779999,0.0,0.0,0.014137166941200001,0.0,0.0,0.0
802,6_28,6,28,0.0,0.0,-0.17235891893,0.98503421416,0.0,0.0,-0.0671951762018,0.0,0.0,0.0
803,6_29,6,29,0.0,0.0,-0.17356223631700002,0.9848229029250001,0.0,0.0,-0.023561944901900004,0.0,0.0,0.0
804,6_30,6,30,0.0,0.0,-0.173734117695,0.9847925956,0.0,0.0,-0.000698131700798,0.0,0.0,0.0
805,6_31,6,31,0.0,0.0,-0.175108977755,0.9845490571369999,0.0,0.0,-0.054105206811800005,0.0,0.0,0.0
806,6_32,6,32,0.0,0.0,-0.175710371841,0.9844419054610001,0.0,0.0,-0.0185004900711,0.0,0.0,0.0
807,6_33,6,33,0.0,0.0,-0.17596809210499997,0.9843958708570001,0.0,0.0,0.009250245035569999,0.0,0.0,0.0
808,6_34,6,34,0.0,0.0,-0.176741180461,0.984257362243,0.0,0.0,-0.039618974020300006,0.0,0.0,0.0
809,6_35,6,35,0.0,0.0,-0.17665528713,0.9842727820730001,0.0,0.0,-0.00453785605519,0.0,0.0,0.0
810,6_36,6,36,0.0,0.0,-0.177857671046,0.984056222403,0.0,0.0,-0.0176278254451,0.0,0.0,0.0
811,6_37,6,37,0.0,0.0,-0.17794354547400001,0.9840406976459999,0.0,0.0,-0.0101229096616,0.0,0.0,0.0
812,6_38,6,38,0.0,0.0,-0.179317351584,0.983791282448,0.0,0.0,-0.0553269372882,0.0,0.0,0.0
813,6_39,6,39,0.0,0.0,-0.179660748593,0.9837286289499999,0.0,0.0,-0.014137166941200001,0.0,0.0,0.0
814,6_40,6,40,0.0,0.0,-0.179832438891,0.983697257251,0.0,0.0,-0.0244346095279,0.0,0.0,0.0
815,6_41,6,41,0.0,0.0,-0.180175803048,0.9836344239579999,0.0,0.0,-0.017278759594700002,0.0,0.0,0.0
816,6_42,6,42,0.0,0.0,-0.182321329976,0.98323900077,0.0,0.0,-0.0518362787842,0.0,0.0,0.0
817,6_43,6,43,0.0,0.0,-0.182492934777,0.98320716472,0.0,0.0,-0.013788101090799998,0.0,0.0,0.0
818,6_44,6,44,0.0,0.0,-0.18283612769699997,0.9831434027689999,0.0,0.0,-0.0253072741539,0.0,0.0,0.0
819,6_45,6,45,0.0,0.0,-0.183179298339,0.9830795210259999,0.0,0.0,-0.03525565089030001,0.0,0.0,0.0
820,6_46,6,46,0.0,0.0,-0.183865572622,0.9829513981899999,0.0,0.0,-0.08552113334769999,0.0,0.0,0.0
821,6_47,6,47,0.0,0.0,-0.18532360751,0.9826775465530001,0.0,0.0,0.00261799387799,0.0,0.0,0.0
822,6_48,6,48,0.0,0.0,-0.18532360751,0.9826775465530001,0.0,0.0,-0.00366519142919,0.0,0.0,0.0
823,6_49,6,49,0.0,0.0,-0.18532360751,0.9826775465530001,0.0,0.0,0.012217304764,0.0,0.0,0.0
824,6_50,6,50,0.0,0.0,-0.18626682470699998,0.982499195935,0.0,0.0,-0.047298422729,0.0,0.0,0.0
825,6_51,6,51,0.0,0.0,-0.18652403600900003,0.982450397726,0.0,0.0,0.0,0.0,0.0,0.0
826,6_52,6,52,0.0,0.0,-0.18678123452599998,0.9824015321799999,0.0,0.0,0.00680678408278,0.0,0.0,0.0
827,6_53,6,53,0.0,0.0,-0.187724186097,0.9822217824680001,0.0,0.0,-0.046076692252699995,0.0,0.0,0.0
828,6_54,6,54,0.0,0.0,-0.18789561327799997,0.9821890034559999,0.0,0.0,0.006981317007979999,0.0,0.0,0.0
829,6_55,6,55,0.0,0.0,-0.188666964687,0.9820411276700001,0.0,0.0,-0.0418879020479,0.0,0.0,0.0
830,6_56,6,56,0.0,0.0,-0.18960956942499999,0.981859567954,0.0,0.0,-0.0338593874887,0.0,0.0,0.0
831,6_57,6,57,0.0,0.0,-0.189866613158,0.981809894637,0.0,0.0,0.010821041362399999,0.0,0.0,0.0
832,6_58,6,58,0.0,0.0,-0.19055199944499998,0.981677103485,0.0,0.0,-0.024609142453099996,0.0,0.0,0.0
833,6_59,6,59,0.0,0.0,-0.191408601662,0.981510441722,0.0,0.0,-0.0418879020479,0.0,0.0,0.0
834,6_60,6,60,0.0,0.0,-0.191665553932,0.981460297432,0.0,0.0,0.0013962634016,0.0,0.0,0.0
835,6_61,6,61,0.0,0.0,-0.192008136522,0.9813933337399999,0.0,0.0,-0.022165681500300002,0.0,0.0,0.0
836,6_62,6,62,0.0,0.0,-0.19217941904599997,0.981359807051,0.0,0.0,-0.0151843644924,0.0,0.0,0.0
837,6_63,6,63,0.0,0.0,-0.192607599732,0.9812758595450001,0.0,0.0,-0.0277507351067,0.0,0.0,0.0
838,6_64,6,64,0.0,0.0,-0.192693231472,0.981259047624,0.0,0.0,-0.007679448708779999,0.0,0.0,0.0
839,6_65,6,65,0.0,0.0,-0.192864490548,0.981225401366,0.0,0.0,-0.0244346095279,0.0,0.0,0.0
840,6_66,6,66,0.0,0.0,-0.193378232506,0.981124283255,0.0,0.0,0.0,0.0,0.0,0.0
841,6_67,6,67,0.0,0.0,-0.19423435122000002,0.9809551553489999,0.0,0.0,-0.046425758103,0.0,0.0,0.0
842,6_68,6,68,0.0,0.0,-0.19457675732500002,0.980887295008,0.0,0.0,-0.030892327760299997,0.0,0.0,0.0
843,6_69,6,69,0.0,0.0,-0.195090322016,0.980785280403,0.0,0.0,-0.022340214425499997,0.0,0.0,0.0
844,6_70,6,70,0.0,0.0,-0.19526149836800002,0.980751215781,0.0,0.0,-0.0193731546971,0.0,0.0,0.0
845,6_71,6,71,0.0,0.0,-0.19551825174100002,0.980700062831,0.0,0.0,-0.0202458193231,0.0,0.0,0.0
846,6_72,6,72,0.0,0.0,-0.196459565994,0.9805119269700001,0.0,0.0,-0.00820304748437,0.0,0.0,0.0
847,6_73,6,73,0.0,0.0,-0.196459565994,0.9805119269700001,0.0,0.0,0.000174532925199,0.0,0.0,0.0
848,6_74,6,74,0.0,0.0,-0.196459565994,0.9805119269700001,0.0,0.0,0.0012217304764,0.0,0.0,0.0
849,6_75,6,75,0.0,0.0,-0.19748624777399998,0.9803056574050001,0.0,0.0,-0.07260569688299999,0.0,0.0,0.0
850,6_76,6,76,0.0,0.0,-0.198085045539,0.980184837025,0.0,0.0,-0.063879050623,0.0,0.0,0.0
851,6_77,6,77,0.0,0.0,-0.198769295319,0.980046308721,0.0,0.0,-0.007679448708779999,0.0,0.0,0.0
852,6_78,6,78,0.0,0.0,-0.198769295319,0.980046308721,0.0,0.0,0.00157079632679,0.0,0.0,0.0
853,6_79,6,79,0.0,0.0,-0.19851271298599998,0.9800983128149999,0.0,0.0,0.00296705972839,0.0,0.0,0.0
854,6_80,6,80,0.0,0.0,-0.199196902256,0.979959485964,0.0,0.0,-0.0127409035396,0.0,0.0,0.0
855,6_81,6,81,0.0,0.0,-0.19962447127,0.979872476637,0.0,0.0,-0.0317649923863,0.0,0.0,0.0
856,6_82,6,82,0.0,0.0,-0.19996649912,0.9798027348549999,0.0,0.0,-0.000698131700798,0.0,0.0,0.0
857,6_83,6,83,0.0,0.0,-0.20116340444699998,0.9795576985109999,0.0,0.0,-0.0518362787842,0.0,0.0,0.0
858,6_84,6,84,0.0,0.0,-0.201419845156,0.979505000486,0.0,0.0,-0.0019198621771900001,0.0,0.0,0.0
859,6_85,6,85,0.0,0.0,-0.20159079796,0.979469831173,0.0,0.0,0.004363323129989999,0.0,0.0,0.0
860,6_86,6,86,0.0,0.0,-0.202274547718,0.9793288555670001,0.0,0.0,-0.046076692252699995,0.0,0.0,0.0
861,6_87,6,87,0.0,0.0,-0.202616385647,0.979258188767,0.0,0.0,0.000698131700798,0.0,0.0,0.0
862,6_88,6,88,0.0,0.0,-0.20295819888900002,0.979187402648,0.0,0.0,-0.0345575191895,0.0,0.0,0.0
863,6_89,6,89,0.0,0.0,-0.2032999874,0.979116497217,0.0,0.0,0.00680678408278,0.0,0.0,0.0
864,6_90,6,90,0.0,0.0,-0.204496051842,0.9788673887620001,0.0,0.0,-0.0488692190558,0.0,0.0,0.0
865,6_91,6,91,0.0,0.0,-0.204752311714,0.978813818276,0.0,0.0,-0.0237364778271,0.0,0.0,0.0
866,6_92,6,92,0.0,0.0,-0.204752311714,0.978813818276,0.0,0.0,-0.00226892802759,0.0,0.0,0.0
867,6_93,6,93,0.0,0.0,-0.204923143834,0.978778067348,0.0,0.0,-0.0134390352404,0.0,0.0,0.0
868,6_94,6,94,0.0,0.0,-0.20526478934,0.978706476047,0.0,0.0,-0.0518362787842,0.0,0.0,0.0
869,6_95,6,95,0.0,0.0,-0.20594800528,0.978562935698,0.0,0.0,-0.0787143492649,0.0,0.0,0.0
870,6_96,6,96,0.0,0.0,-0.20731413569600002,0.9782744242489999,0.0,0.0,-0.000698131700798,0.0,0.0,0.0
871,6_97,6,97,0.0,0.0,-0.20705801694899997,0.978328665438,0.0,0.0,0.010646508437200001,0.0,0.0,0.0
872,6_98,6,98,0.0,0.0,-0.20697264087900002,0.978346730933,0.0,0.0,0.009250245035569999,0.0,0.0,0.0
873,6_99,6,99,0.0,0.0,-0.20774096869000003,0.978183873271,0.0,0.0,-0.046076692252699995,0.0,0.0,0.0
874,6_100,6,100,0.0,0.0,-0.207997049507,0.978129453292,0.0,0.0,-0.017453292519900004,0.0,0.0,0.0
875,6_101,6,101,0.0,0.0,-0.208509168356,0.978020412216,0.0,0.0,-0.0240855436775,0.0,0.0,0.0
876,6_102,6,102,0.0,0.0,-0.208509168356,0.978020412216,0.0,0.0,0.00471238898038,0.0,0.0,0.0
877,6_103,6,103,0.0,0.0,-0.20919190454199998,0.97787460703,0.0,0.0,-0.004014257279590001,0.0,0.0,0.0
878,6_104,6,104,0.0,0.0,-0.20987453877,0.9777283252399999,0.0,0.0,-0.050789081233,0.0,0.0,0.0
879,6_105,6,105,0.0,0.0,-0.210642379992,0.977563188623,0.0,0.0,0.0,0.0,0.0,0.0
880,6_106,6,106,0.0,0.0,-0.21123950002300002,0.977434332132,0.0,0.0,-0.024609142453099996,0.0,0.0,0.0
881,6_107,6,107,0.0,0.0,-0.211495384491,0.9773789962639999,0.0,0.0,-0.0240855436775,0.0,0.0,0.0
882,6_108,6,108,0.0,0.0,-0.211751254463,0.977323593409,0.0,0.0,0.00453785605519,0.0,0.0,0.0
883,6_109,6,109,0.0,0.0,-0.212433503388,0.977175524989,0.0,0.0,-0.021816615649900003,0.0,0.0,0.0
884,6_110,6,110,0.0,0.0,-0.212604049454,0.9771384334659999,0.0,0.0,-0.027925268031900003,0.0,0.0,0.0
885,6_111,6,111,0.0,0.0,-0.213627189669,0.9769152592899999,0.0,0.0,0.00994837673637,0.0,0.0,0.0
886,6_112,6,112,0.0,0.0,-0.21422391334600002,0.976784579603,0.0,0.0,-0.0441568300755,0.0,0.0,0.0
887,6_113,6,113,0.0,0.0,-0.21430915306499998,0.9767658813210001,0.0,0.0,-0.012391837689200002,0.0,0.0,0.0
888,6_114,6,114,0.0,0.0,-0.21456486242800002,0.9767097418430001,0.0,0.0,-0.0333357887131,0.0,0.0,0.0
889,6_115,6,115,0.0,0.0,-0.215076237017,0.9765972620640001,0.0,0.0,0.00261799387799,0.0,0.0,0.0
890,6_116,6,116,0.0,0.0,-0.215757978057,0.976446872546,0.0,0.0,-0.021118483949099997,0.0,0.0,0.0
891,6_117,6,117,0.0,0.0,-0.215757978057,0.976446872546,0.0,0.0,0.012391837689200002,0.0,0.0,0.0
892,6_118,6,118,0.0,0.0,-0.215843188299,0.9764280403929999,0.0,0.0,-0.017453292519900004,0.0,0.0,0.0
893,6_119,6,119,0.0,0.0,-0.21592839689800003,0.9764092008030001,0.0,0.0,0.00366519142919,0.0,0.0,0.0
894,6_120,6,120,0.0,0.0,-0.216524811013,0.976277115483,0.0,0.0,-0.0678933079026,0.0,0.0,0.0
895,6_121,6,121,0.0,0.0,-0.21712114433000002,0.976144665859,0.0,0.0,-0.0654498469498,0.0,0.0,0.0
896,6_122,6,122,0.0,0.0,-0.21771739662599998,0.97601185198,0.0,0.0,-0.021816615649900003,0.0,0.0,0.0
897,6_123,6,123,0.0,0.0,-0.217887739513,0.975973838261,0.0,0.0,-0.013089969390000001,0.0,0.0,0.0
898,6_124,6,124,0.0,0.0,-0.217887739513,0.975973838261,0.0,0.0,-0.0186750229963,0.0,0.0,0.0
899,6_125,6,125,0.0,0.0,-0.21882450661,0.9757642314139999,0.0,0.0,-0.0256563400043,0.0,0.0,0.0
900,6_126,6,126,0.0,0.0,-0.21856904463500001,0.975821486096,0.0,0.0,0.0038397243543899996,0.0,0.0,0.0
901,6_127,6,127,0.0,0.0,-0.218654200292,0.9758024086329999,0.0,0.0,-0.010471975512,0.0,0.0,0.0
902,6_128,6,128,0.0,0.0,-0.220101591162,0.975476954914,0.0,0.0,-0.0415388361975,0.0,0.0,0.0
903,7_0,7,0,0.0,0.0,-0.220271840655,0.975438525082,0.0,0.0,0.014660765716799999,0.0,0.0,0.0
904,7_1,7,1,0.0,0.0,-0.220356962886,0.975419299024,0.0,0.0,-0.0193731546971,0.0,0.0,0.0
905,7_2,7,2,0.0,0.0,-0.221803783528,0.9750913196269999,0.0,0.0,-0.044680428851100004,0.0,0.0,0.0
906,7_3,7,3,0.0,0.0,-0.22188887545400002,0.975071959883,0.0,0.0,0.015533430342700001,0.0,0.0,0.0
907,7_4,7,4,0.0,0.0,-0.22188887545400002,0.975071959883,0.0,0.0,-0.009075712110370001,0.0,0.0,0.0
908,7_5,7,5,0.0,0.0,-0.223250116011,0.974761194191,0.0,0.0,-0.015358897417600001,0.0,0.0,0.0
909,7_6,7,6,0.0,0.0,-0.22282477496599998,0.974858512637,0.0,0.0,0.00610865238198,0.0,0.0,0.0
910,7_7,7,7,0.0,0.0,-0.222654626665,0.9748973880490001,0.0,0.0,-0.0195476876223,0.0,0.0,0.0
911,7_8,7,8,0.0,0.0,-0.22316505120000002,0.974780672727,0.0,0.0,-0.06981317007980001,0.0,0.0,0.0
912,7_9,7,9,0.0,0.0,-0.224355803608,0.9745072977600001,0.0,0.0,0.00994837673637,0.0,0.0,0.0
913,7_10,7,10,0.0,0.0,-0.224270760949,0.9745268727869999,0.0,0.0,0.005410520681180001,0.0,0.0,0.0
914,7_11,7,11,0.0,0.0,-0.225291159947,0.974291482694,0.0,0.0,-0.0385717764691,0.0,0.0,0.0
915,7_12,7,12,0.0,0.0,-0.225376182061,0.9742718186210001,0.0,0.0,-0.009075712110370001,0.0,0.0,0.0
916,7_13,7,13,0.0,0.0,-0.226311311886,0.974055024171,0.0,0.0,-0.015358897417600001,0.0,0.0,0.0
917,7_14,7,14,0.0,0.0,-0.226226308688,0.974074769849,0.0,0.0,0.0160570291183,0.0,0.0,0.0
918,7_15,7,15,0.0,0.0,-0.226311311886,0.974055024171,0.0,0.0,-0.021816615649900003,0.0,0.0,0.0
919,7_16,7,16,0.0,0.0,-0.226396313361,0.974035271074,0.0,0.0,-0.00366519142919,0.0,0.0,0.0
920,7_17,7,17,0.0,0.0,-0.22673630201099998,0.9739561845129999,0.0,0.0,-0.042935099599099996,0.0,0.0,0.0
921,7_18,7,18,0.0,0.0,-0.226821294859,0.9739363943289999,0.0,0.0,0.0102974425868,0.0,0.0,0.0
922,7_19,7,19,0.0,0.0,-0.226906285979,0.9739165967290001,0.0,0.0,-0.0167551608191,0.0,0.0,0.0
923,7_20,7,20,0.0,0.0,-0.227416196389,0.973797655378,0.0,0.0,-0.0034906585039899997,0.0,0.0,0.0
924,7_21,7,21,0.0,0.0,-0.228435830028,0.973558971793,0.0,0.0,-0.0403171057211,0.0,0.0,0.0
925,7_22,7,22,0.0,0.0,-0.228605744643,0.973519087392,0.0,0.0,-0.0164060949687,0.0,0.0,0.0
926,7_23,7,23,0.0,0.0,-0.22894555297699998,0.9734392296250001,0.0,0.0,0.0115191730632,0.0,0.0,0.0
927,7_24,7,24,0.0,0.0,-0.22945521315900003,0.973319220582,0.0,0.0,-0.0364773813667,0.0,0.0,0.0
928,7_25,7,25,0.0,0.0,-0.229794951674,0.9732390663060001,0.0,0.0,-0.00977384381117,0.0,0.0,0.0
929,7_26,7,26,0.0,0.0,-0.23030450693500001,0.973118612547,0.0,0.0,0.0129154364648,0.0,0.0,0.0
930,7_27,7,27,0.0,0.0,-0.23064417537300003,0.973038161824,0.0,0.0,-0.0387463093943,0.0,0.0,0.0
931,7_28,7,28,0.0,0.0,-0.230983815708,0.9729575925399999,0.0,0.0,-0.0050614548307799994,0.0,0.0,0.0
932,7_29,7,29,0.0,0.0,-0.231663011902,0.9727960983249999,0.0,0.0,-0.0214675497995,0.0,0.0,0.0
933,7_30,7,30,0.0,0.0,-0.232257215962,0.97265440195,0.0,0.0,-0.0376991118431,0.0,0.0,0.0
934,7_31,7,31,0.0,0.0,-0.232257215962,0.97265440195,0.0,0.0,0.010821041362399999,0.0,0.0,0.0
935,7_32,7,32,0.0,0.0,-0.232426972642,0.9726138506049999,0.0,0.0,-0.00645771823238,0.0,0.0,0.0
936,7_33,7,33,0.0,0.0,-0.232342095187,0.972634129981,0.0,0.0,0.009599310885969999,0.0,0.0,0.0
937,7_34,7,34,0.0,0.0,-0.233360507684,0.9723902886460001,0.0,0.0,-0.0600393262686,0.0,0.0,0.0
938,7_35,7,35,0.0,0.0,-0.233869618037,0.9722679680830001,0.0,0.0,-0.008028514559169999,0.0,0.0,0.0
939,7_36,7,36,0.0,0.0,-0.233954463532,0.972247555406,0.0,0.0,-0.012391837689200002,0.0,0.0,0.0
940,7_37,7,37,0.0,0.0,-0.23378477075999998,0.9722883733550001,0.0,0.0,-0.00226892802759,0.0,0.0,0.0
941,7_38,7,38,0.0,0.0,-0.23480282039099998,0.972043021443,0.0,0.0,-0.027227136331099997,0.0,0.0,0.0
942,7_39,7,39,0.0,0.0,-0.234887646252,0.9720225273309999,0.0,0.0,0.000872664625997,0.0,0.0,0.0
943,7_40,7,40,0.0,0.0,-0.234887646252,0.9720225273309999,0.0,0.0,-0.00942477796077,0.0,0.0,0.0
944,7_41,7,41,0.0,0.0,-0.234887646252,0.9720225273309999,0.0,0.0,0.005410520681180001,0.0,0.0,0.0
945,7_42,7,42,0.0,0.0,-0.235226931805,0.971940476857,0.0,0.0,-0.0588175957922,0.0,0.0,0.0
946,7_43,7,43,0.0,0.0,-0.235905416885,0.9717760206370001,0.0,0.0,0.007679448708779999,0.0,0.0,0.0
947,7_44,7,44,0.0,0.0,-0.235820612531,0.971796603568,0.0,0.0,0.006632251157579999,0.0,0.0,0.0
948,7_45,7,45,0.0,0.0,-0.23565099843600001,0.971837747227,0.0,0.0,0.0251327412287,0.0,0.0,0.0
949,7_46,7,46,0.0,0.0,-0.23624461632899998,0.971693614909,0.0,0.0,-0.05654866776459999,0.0,0.0,0.0
950,7_47,7,47,0.0,0.0,-0.23641420525899998,0.9716523676459999,0.0,0.0,0.0116937059884,0.0,0.0,0.0
951,7_48,7,48,0.0,0.0,-0.236838146066,0.971549119998,0.0,0.0,0.00279252680319,0.0,0.0,0.0
952,7_49,7,49,0.0,0.0,-0.23751635753400002,0.971383539033,0.0,0.0,-0.07120943348139999,0.0,0.0,0.0
953,7_50,7,50,0.0,0.0,-0.23819445324000002,0.971217484627,0.0,0.0,0.00837758040957,0.0,0.0,0.0
954,7_51,7,51,0.0,0.0,-0.238448709217,0.971155092183,0.0,0.0,0.00453785605519,0.0,0.0,0.0
955,7_52,7,52,0.0,0.0,-0.238448709217,0.971155092183,0.0,0.0,-0.047996554429800005,0.0,0.0,0.0
956,7_53,7,53,0.0,0.0,-0.23938084117699998,0.970925750445,0.0,0.0,0.010821041362399999,0.0,0.0,0.0
957,7_54,7,54,0.0,0.0,-0.239550296042,0.970883955819,0.0,0.0,0.004363323129989999,0.0,0.0,0.0
958,7_55,7,55,0.0,0.0,-0.23938084117699998,0.970925750445,0.0,0.0,-0.048171087355,0.0,0.0,0.0
959,7_56,7,56,0.0,0.0,-0.23988918387400002,0.970800277843,0.0,0.0,-0.0581194640914,0.0,0.0,0.0
960,7_57,7,57,0.0,0.0,-0.24031275255600001,0.970695514031,0.0,0.0,-0.008028514559169999,0.0,0.0,0.0
961,7_58,7,58,0.0,0.0,-0.240566871809,0.970632567035,0.0,0.0,0.0102974425868,0.0,0.0,0.0
962,7_59,7,59,0.0,0.0,-0.240482167222,0.970653556759,0.0,0.0,0.0101229096616,0.0,0.0,0.0
963,7_60,7,60,0.0,0.0,-0.241244442494,0.970464383152,0.0,0.0,-0.010821041362399999,0.0,0.0,0.0
964,7_61,7,61,0.0,0.0,-0.241159752582,0.9704854320049999,0.0,0.0,0.005410520681180001,0.0,0.0,0.0
965,7_62,7,62,0.0,0.0,-0.241583183765,0.970380113833,0.0,0.0,-0.011344640138,0.0,0.0,0.0
966,7_63,7,63,0.0,0.0,-0.241583183765,0.970380113833,0.0,0.0,0.005410520681180001,0.0,0.0,0.0
967,7_64,7,64,0.0,0.0,-0.2419218956,0.970295726276,0.0,0.0,-0.0240855436775,0.0,0.0,0.0
968,7_65,7,65,0.0,0.0,-0.242091240466,0.9702534881620001,0.0,0.0,-0.0160570291183,0.0,0.0,0.0
969,7_66,7,66,0.0,0.0,-0.242006568954,0.9702746109129999,0.0,0.0,-0.0109955742876,0.0,0.0,0.0
970,7_67,7,67,0.0,0.0,-0.24183722040300001,0.970316834249,0.0,0.0,0.010471975512,0.0,0.0,0.0
971,7_68,7,68,0.0,0.0,-0.24183722040300001,0.970316834249,0.0,0.0,-0.0134390352404,0.0,0.0,0.0
972,7_69,7,69,0.0,0.0,-0.24251457035500001,0.970147763573,0.0,0.0,-0.0005235987755980001,0.0,0.0,0.0
973,7_70,7,70,0.0,0.0,-0.24251457035500001,0.970147763573,0.0,0.0,0.000872664625997,0.0,0.0,0.0
974,7_71,7,71,0.0,0.0,-0.243361091541,0.969935760308,0.0,0.0,-0.026005405854700004,0.0,0.0,0.0
975,7_72,7,72,0.0,0.0,-0.24361501178599998,0.9698720152850001,0.0,0.0,-0.0317649923863,0.0,0.0,0.0
976,7_73,7,73,0.0,0.0,-0.24386891533399999,0.969808203788,0.0,0.0,0.0116937059884,0.0,0.0,0.0
977,7_74,7,74,0.0,0.0,-0.24471513968199998,0.969595018763,0.0,0.0,-0.0338593874887,0.0,0.0,0.0
978,7_75,7,75,0.0,0.0,-0.244630525623,0.969616370496,0.0,0.0,-0.0167551608191,0.0,0.0,0.0
979,7_76,7,76,0.0,0.0,-0.24488436220899998,0.9695522931460001,0.0,0.0,0.0202458193231,0.0,0.0,0.0
980,7_77,7,77,0.0,0.0,-0.24530738587900003,0.969445349895,0.0,0.0,-0.0315904594611,0.0,0.0,0.0
981,7_78,7,78,0.0,0.0,-0.245730362846,0.969338222075,0.0,0.0,-0.0553269372882,0.0,0.0,0.0
982,7_79,7,79,0.0,0.0,-0.246237873445,0.969209425089,0.0,0.0,0.0181514242207,0.0,0.0,0.0
983,7_80,7,80,0.0,0.0,-0.246999012723,0.9690157314069999,0.0,0.0,-0.056025068989000004,0.0,0.0,0.0
984,7_81,7,81,0.0,0.0,-0.24742180207199999,0.9689078655159999,0.0,0.0,-0.030892327760299997,0.0,0.0,0.0
985,7_82,7,82,0.0,0.0,-0.247844544316,0.968799815159,0.0,0.0,0.00837758040957,0.0,0.0,0.0
986,7_83,7,83,0.0,0.0,-0.248013628006,0.968756543371,0.0,0.0,-0.021118483949099997,0.0,0.0,0.0
987,7_84,7,84,0.0,0.0,-0.248013628006,0.968756543371,0.0,0.0,-0.0151843644924,0.0,0.0,0.0
988,7_85,7,85,0.0,0.0,-0.249366025115,0.968409306811,0.0,0.0,0.006981317007979999,0.0,0.0,0.0
989,7_86,7,86,0.0,0.0,-0.24911248760899998,0.968474557496,0.0,0.0,-0.00314159265359,0.0,0.0,0.0
990,7_87,7,87,0.0,0.0,-0.249197002009,0.968452814643,0.0,0.0,-0.013788101090799998,0.0,0.0,0.0
991,7_88,7,88,0.0,0.0,-0.249197002009,0.968452814643,0.0,0.0,-0.029670597283900004,0.0,0.0,0.0
992,7_89,7,89,0.0,0.0,-0.24953504062600002,0.96836576948,0.0,0.0,-0.039618974020300006,0.0,0.0,0.0
993,7_90,7,90,0.0,0.0,-0.249704048534,0.96832220265,0.0,0.0,0.007853981633970001,0.0,0.0,0.0
994,7_91,7,91,0.0,0.0,-0.249957546134,0.9682567970999999,0.0,0.0,0.00558505360638,0.0,0.0,0.0
995,7_92,7,92,0.0,0.0,-0.249788549637,0.968300408174,0.0,0.0,0.0226892802759,0.0,0.0,0.0
996,7_93,7,93,0.0,0.0,-0.250633455931,0.968082057869,0.0,0.0,-0.0321140582367,0.0,0.0,0.0
997,7_94,7,94,0.0,0.0,-0.250211026602,0.968191325187,0.0,0.0,0.009599310885969999,0.0,0.0,0.0
998,7_95,7,95,0.0,0.0,-0.250211026602,0.968191325187,0.0,0.0,-0.00750491578358,0.0,0.0,0.0
999,7_96,7,96,0.0,0.0,-0.250126535017,0.968213156531,0.0,0.0,-0.0116937059884,0.0,0.0,0.0
1000,7_97,7,97,0.0,0.0,-0.25054897388,0.9681039260780001,0.0,0.0,-0.0563741348394,0.0,0.0,0.0
1001,7_98,7,98,0.0,0.0,-0.251309243572,0.967906846807,0.0,0.0,0.0202458193231,0.0,0.0,0.0
1002,7_99,7,99,0.0,0.0,-0.251647091481,0.967819064366,0.0,0.0,-0.027052603405900003,0.0,0.0,0.0
1003,7_100,7,100,0.0,0.0,-0.251309243572,0.967906846807,0.0,0.0,-0.000698131700798,0.0,0.0,0.0
1004,7_101,7,101,0.0,0.0,-0.25198490872699997,0.9677311639980001,0.0,0.0,0.017278759594700002,0.0,0.0,0.0
1005,7_102,7,102,0.0,0.0,-0.252660451069,0.96755500953,0.0,0.0,-0.0476474885794,0.0,0.0,0.0
1006,7_103,7,103,0.0,0.0,-0.253082602519,0.9674446735100001,0.0,0.0,-0.00977384381117,0.0,0.0,0.0
1007,7_104,7,104,0.0,0.0,-0.25316702703,0.967422584202,0.0,0.0,0.0158824961931,0.0,0.0,0.0
1008,7_105,7,105,0.0,0.0,-0.253335870266,0.967378383486,0.0,0.0,-0.029496064358700003,0.0,0.0,0.0
1009,7_106,7,106,0.0,0.0,-0.25358912065,0.9673120271600001,0.0,0.0,-0.0144862327916,0.0,0.0,0.0
1010,7_107,7,107,0.0,0.0,-0.254011165991,0.967201285954,0.0,0.0,0.0033161255787899995,0.0,0.0,0.0
1011,7_108,7,108,0.0,0.0,-0.254179970591,0.967156937911,0.0,0.0,-0.022863813201099998,0.0,0.0,0.0
1012,7_109,7,109,0.0,0.0,-0.254517556558,0.967068153443,0.0,0.0,-0.00157079632679,0.0,0.0,0.0
1013,7_110,7,110,0.0,0.0,-0.254686337914,0.9670237170200001,0.0,0.0,0.0176278254451,0.0,0.0,0.0
1014,7_111,7,111,0.0,0.0,-0.254348767449,0.967112560407,0.0,0.0,0.030717794835099996,0.0,0.0,0.0
1015,7_112,7,112,0.0,0.0,-0.25519263541299997,0.9668902310140001,0.0,0.0,-0.0521853446346,0.0,0.0,0.0
1016,7_113,7,113,0.0,0.0,-0.25569886295,0.9667564799299999,0.0,0.0,-0.0293215314335,0.0,0.0,0.0
1017,7_114,7,114,0.0,0.0,-0.256036309038,0.966667165292,0.0,0.0,-0.0338593874887,0.0,0.0,0.0
1018,7_115,7,115,0.0,0.0,-0.25595195043900004,0.9666895049940001,0.0,0.0,0.0183259571459,0.0,0.0,0.0
1019,7_116,7,116,0.0,0.0,-0.256036309038,0.966667165292,0.0,0.0,-0.0197222205475,0.0,0.0,0.0
1020,7_117,7,117,0.0,0.0,-0.256458072772,0.966555356361,0.0,0.0,0.00855211333477,0.0,0.0,0.0
1021,7_118,7,118,0.0,0.0,-0.256458072772,0.966555356361,0.0,0.0,-0.00418879020479,0.0,0.0,0.0
1022,7_119,7,119,0.0,0.0,-0.25747010637,0.9662862641709999,0.0,0.0,-0.0134390352404,0.0,0.0,0.0
1023,7_120,7,120,0.0,0.0,-0.257638751216,0.9662413124429999,0.0,0.0,-0.0286233997327,0.0,0.0,0.0
1024,7_121,7,121,0.0,0.0,-0.25999895266899997,0.9656088983700001,0.0,0.0,-0.0949459113085,0.0,0.0,0.0
1025,7_122,7,122,0.0,0.0,-0.261178472154,0.9652905291580001,0.0,0.0,0.005410520681180001,0.0,0.0,0.0
1026,7_123,7,123,0.0,0.0,-0.26109423367,0.965313317604,0.0,0.0,0.009250245035569999,0.0,0.0,0.0
1027,7_124,7,124,0.0,0.0,-0.26126270865,0.965267733362,0.0,0.0,-0.013089969390000001,0.0,0.0,0.0
1028,7_125,7,125,0.0,0.0,-0.261431175671,0.9652221197149999,0.0,0.0,0.0205948851735,0.0,0.0,0.0
1029,7_126,7,126,0.0,0.0,-0.261683861269,0.965153644117,0.0,0.0,-0.05148721293380001,0.0,0.0,0.0
1030,7_127,7,127,0.0,0.0,-0.262020747497,0.965062240418,0.0,0.0,-0.027227136331099997,0.0,0.0,0.0
1031,7_128,7,128,0.0,0.0,-0.262357601798,0.9649707191299999,0.0,0.0,-0.026005405854700004,0.0,0.0,0.0
1032,8_0,8,0,0.0,0.0,-0.262610221548,0.964902001002,0.0,0.0,0.0186750229963,0.0,0.0,0.0
1033,8_1,8,1,0.0,0.0,-0.26336797273400003,0.9646954498379999,0.0,0.0,-0.0354301838155,0.0,0.0,0.0
1034,8_2,8,2,0.0,0.0,-0.26345215729000004,0.9646724629729999,0.0,0.0,-0.00453785605519,0.0,0.0,0.0
1035,8_3,8,3,0.0,0.0,-0.263283786172,0.9647184293559999,0.0,0.0,0.0162315620435,0.0,0.0,0.0
1036,8_4,8,4,0.0,0.0,-0.263704698919,0.964603458302,0.0,0.0,-0.0280998009571,0.0,0.0,0.0
1037,8_5,8,5,0.0,0.0,-0.263704698919,0.964603458302,0.0,0.0,-0.000698131700798,0.0,0.0,0.0
1038,8_6,8,6,0.0,0.0,-0.263873049965,0.964557418458,0.0,0.0,0.006981317007979999,0.0,0.0,0.0
1039,8_7,8,7,0.0,0.0,-0.264209727938,0.964465250625,0.0,0.0,-0.0441568300755,0.0,0.0,0.0
1040,8_8,8,8,0.0,0.0,-0.264546373717,0.964372965275,0.0,0.0,-0.006632251157579999,0.0,0.0,0.0
1041,8_9,8,9,0.0,0.0,-0.264546373717,0.964372965275,0.0,0.0,-0.0204203522483,0.0,0.0,0.0
1042,8_10,8,10,0.0,0.0,-0.264462215293,0.964396047629,0.0,0.0,0.0012217304764,0.0,0.0,0.0
1043,8_11,8,11,0.0,0.0,-0.264546373717,0.964372965275,0.0,0.0,-0.022863813201099998,0.0,0.0,0.0
1044,8_12,8,12,0.0,0.0,-0.265219568533,0.964188042068,0.0,0.0,0.00523598775598,0.0,0.0,0.0
1045,8_13,8,13,0.0,0.0,-0.265219568533,0.964188042068,0.0,0.0,0.0012217304764,0.0,0.0,0.0
1046,8_14,8,14,0.0,0.0,-0.265051281935,0.9642343169299998,0.0,0.0,0.0178023583703,0.0,0.0,0.0
1047,8_15,8,15,0.0,0.0,-0.265135426243,0.96421118317,0.0,0.0,-0.0342084533391,0.0,0.0,0.0
1048,8_16,8,16,0.0,0.0,-0.265640249671,0.96407222642,0.0,0.0,-0.0267035375555,0.0,0.0,0.0
1049,8_17,8,17,0.0,0.0,-0.26580850797,0.964025848767,0.0,0.0,-0.006981317007979999,0.0,0.0,0.0
1050,8_18,8,18,0.0,0.0,-0.26580850797,0.964025848767,0.0,0.0,0.000698131700798,0.0,0.0,0.0
1051,8_19,8,19,0.0,0.0,-0.265640249671,0.96407222642,0.0,0.0,-0.00942477796077,0.0,0.0,0.0
1052,8_20,8,20,0.0,0.0,-0.265724379832,0.9640490412639999,0.0,0.0,-0.0165806278939,0.0,0.0,0.0
1053,8_21,8,21,0.0,0.0,-0.266060880235,0.9639562272259999,0.0,0.0,-0.008028514559169999,0.0,0.0,0.0
1054,8_22,8,22,0.0,0.0,-0.266565570041,0.9638167859450001,0.0,0.0,-0.00820304748437,0.0,0.0,0.0
1055,8_23,8,23,0.0,0.0,-0.26690198932,0.9637236782899999,0.0,0.0,-0.020943951023900002,0.0,0.0,0.0
1056,8_24,8,24,0.0,0.0,-0.266817887548,0.9637469662129999,0.0,0.0,-0.000872664625997,0.0,0.0,0.0
1057,8_25,8,25,0.0,0.0,-0.267322467681,0.963607128592,0.0,0.0,-0.0010471975512,0.0,0.0,0.0
1058,8_26,8,26,0.0,0.0,-0.267406557249,0.963583796636,0.0,0.0,-0.00296705972839,0.0,0.0,0.0
1059,8_27,8,27,0.0,0.0,-0.26757473027399997,0.963537110712,0.0,0.0,-0.0102974425868,0.0,0.0,0.0
1060,8_28,8,28,0.0,0.0,-0.267995127166,0.963420267493,0.0,0.0,-0.0181514242207,0.0,0.0,0.0
1061,8_29,8,29,0.0,0.0,-0.26807920042399996,0.9633968768369999,0.0,0.0,-0.004014257279590001,0.0,0.0,0.0
1062,8_30,8,30,0.0,0.0,-0.26816327164000003,0.963373478846,0.0,0.0,0.000174532925199,0.0,0.0,0.0
1063,8_31,8,31,0.0,0.0,-0.268583597078,0.9632563788420001,0.0,0.0,0.00418879020479,0.0,0.0,0.0
1064,8_32,8,32,0.0,0.0,-0.26875171294,0.963209487491,0.0,0.0,-0.0280998009571,0.0,0.0,0.0
1065,8_33,8,33,0.0,0.0,-0.268919820615,0.963162566798,0.0,0.0,0.0136135681656,0.0,0.0,0.0
1066,8_34,8,34,0.0,0.0,-0.268835767801,0.963186030812,0.0,0.0,-0.000872664625997,0.0,0.0,0.0
1067,8_35,8,35,0.0,0.0,-0.269087920099,0.9631156167649999,0.0,0.0,0.0111701072128,0.0,0.0,0.0
1068,8_36,8,36,0.0,0.0,-0.269171966767,0.963092130747,0.0,0.0,-0.0267035375555,0.0,0.0,0.0
1069,8_37,8,37,0.0,0.0,-0.270180366714,0.9628097265000001,0.0,0.0,-0.014660765716799999,0.0,0.0,0.0
1070,8_38,8,38,0.0,0.0,-0.270264386684,0.962786145149,0.0,0.0,-0.00750491578358,0.0,0.0,0.0
1071,8_39,8,39,0.0,0.0,-0.270012320601,0.9628568672050001,0.0,0.0,0.0109955742876,0.0,0.0,0.0
1072,8_40,8,40,0.0,0.0,-0.26992829446,0.962880426559,0.0,0.0,0.013089969390000001,0.0,0.0,0.0
1073,8_41,8,41,0.0,0.0,-0.270684455649,0.962668128417,0.0,0.0,-0.03403392041390001,0.0,0.0,0.0
1074,8_42,8,42,0.0,0.0,-0.27085246880999997,0.962620870405,0.0,0.0,-0.0125663706144,0.0,0.0,0.0
1075,8_43,8,43,0.0,0.0,-0.27085246880999997,0.962620870405,0.0,0.0,0.00558505360638,0.0,0.0,0.0
1076,8_44,8,44,0.0,0.0,-0.27085246880999997,0.962620870405,0.0,0.0,-0.00244346095279,0.0,0.0,0.0
1077,8_45,8,45,0.0,0.0,-0.270936472296,0.9625972304029999,0.0,0.0,-0.0150098315672,0.0,0.0,0.0
1078,8_46,8,46,0.0,0.0,-0.271356458768,0.9624789204369999,0.0,0.0,0.0125663706144,0.0,0.0,0.0
1079,8_47,8,47,0.0,0.0,-0.271440449865,0.962455236454,0.0,0.0,-0.024609142453099996,0.0,0.0,0.0
1080,8_48,8,48,0.0,0.0,-0.27127246560400003,0.96250259709,0.0,0.0,-0.0144862327916,0.0,0.0,0.0
1081,8_49,8,49,0.0,0.0,-0.272196276643,0.962241750799,0.0,0.0,0.00157079632679,0.0,0.0,0.0
1082,8_50,8,50,0.0,0.0,-0.272280247041,0.962217993529,0.0,0.0,-0.0191986217719,0.0,0.0,0.0
1083,8_51,8,51,0.0,0.0,-0.272196276643,0.962241750799,0.0,0.0,0.000174532925199,0.0,0.0,0.0
1084,8_52,8,52,0.0,0.0,-0.27320378441599996,0.9619561799690001,0.0,0.0,-0.0125663706144,0.0,0.0,0.0
1085,8_53,8,53,0.0,0.0,-0.27320378441599996,0.9619561799690001,0.0,0.0,-0.0165806278939,0.0,0.0,0.0
1086,8_54,8,54,0.0,0.0,-0.272951935517,0.962027671586,0.0,0.0,-0.00733038285838,0.0,0.0,0.0
1087,8_55,8,55,0.0,0.0,-0.273875289887,0.961765213339,0.0,0.0,-0.009250245035569999,0.0,0.0,0.0
1088,8_56,8,56,0.0,0.0,-0.273791358997,0.961789109805,0.0,0.0,0.00279252680319,0.0,0.0,0.0
1089,8_57,8,57,0.0,0.0,-0.273875289887,0.961765213339,0.0,0.0,-0.00453785605519,0.0,0.0,0.0
1090,8_58,8,58,0.0,0.0,-0.27362349096099997,0.9618368807619999,0.0,0.0,-0.0050614548307799994,0.0,0.0,0.0
1091,8_59,8,59,0.0,0.0,-0.27463057397199997,0.961549815579,0.0,0.0,0.00855211333477,0.0,0.0,0.0
1092,8_60,8,60,0.0,0.0,-0.274546661875,0.961573777956,0.0,0.0,0.009075712110370001,0.0,0.0,0.0
1093,8_61,8,61,0.0,0.0,-0.27463057397199997,0.961549815579,0.0,0.0,0.0132645023152,0.0,0.0,0.0
1094,8_62,8,62,0.0,0.0,-0.274714483977,0.961525845879,0.0,0.0,-0.0312413936107,0.0,0.0,0.0
1095,8_63,8,63,0.0,0.0,-0.274966201438,0.961453892845,0.0,0.0,-0.0287979326579,0.0,0.0,0.0
1096,8_64,8,64,0.0,0.0,-0.274966201438,0.961453892845,0.0,0.0,-0.017453292519900004,0.0,0.0,0.0
1097,8_65,8,65,0.0,0.0,-0.275217900052,0.961381873914,0.0,0.0,-0.0267035375555,0.0,0.0,0.0
1098,8_66,8,66,0.0,0.0,-0.2753017954,0.9613578529610001,0.0,0.0,-0.0013962634016,0.0,0.0,0.0
1099,8_67,8,67,0.0,0.0,-0.275805123434,0.961213573504,0.0,0.0,0.00244346095279,0.0,0.0,0.0
1100,8_68,8,68,0.0,0.0,-0.275721240675,0.961237638381,0.0,0.0,0.0115191730632,0.0,0.0,0.0
1101,8_69,8,69,0.0,0.0,-0.276140633457,0.961117240795,0.0,0.0,-0.000349065850399,0.0,0.0,0.0
1102,8_70,8,70,0.0,0.0,-0.276140633457,0.961117240795,0.0,0.0,-0.0303687289847,0.0,0.0,0.0
1103,8_71,8,71,0.0,0.0,-0.276559973666,0.9609966602259999,0.0,0.0,0.00610865238198,0.0,0.0,0.0
1104,8_72,8,72,0.0,0.0,-0.277146961483,0.960827540061,0.0,0.0,-0.0109955742876,0.0,0.0,0.0
1105,8_73,8,73,0.0,0.0,-0.276895407927,0.960900064038,0.0,0.0,-0.027227136331099997,0.0,0.0,0.0
1106,8_74,8,74,0.0,0.0,-0.276979261222,0.960875896697,0.0,0.0,0.0132645023152,0.0,0.0,0.0
1107,8_75,8,75,0.0,0.0,-0.277314653302,0.9607791541580001,0.0,0.0,-0.0134390352404,0.0,0.0,0.0
1108,8_76,8,76,0.0,0.0,-0.27723080844799997,0.960803350768,0.0,0.0,-0.0219911485751,0.0,0.0,0.0
1109,8_77,8,77,0.0,0.0,-0.278069161877,0.960561055432,0.0,0.0,0.0150098315672,0.0,0.0,0.0
1110,8_78,8,78,0.0,0.0,-0.278236807172,0.9605125085780001,0.0,0.0,-0.0293215314335,0.0,0.0,0.0
1111,8_79,8,79,0.0,0.0,-0.278236807172,0.9605125085780001,0.0,0.0,-0.0197222205475,0.0,0.0,0.0
1112,8_80,8,80,0.0,0.0,-0.27907490641,0.960269335454,0.0,0.0,0.004014257279590001,0.0,0.0,0.0
1113,8_81,8,81,0.0,0.0,-0.27915870465500003,0.960244977917,0.0,0.0,-0.00610865238198,0.0,0.0,0.0
1114,8_82,8,82,0.0,0.0,-0.278991106039,0.960293685677,0.0,0.0,-0.009075712110370001,0.0,0.0,0.0
1115,8_83,8,83,0.0,0.0,-0.27966144946,0.9600986791399999,0.0,0.0,0.010821041362399999,0.0,0.0,0.0
1116,8_84,8,84,0.0,0.0,-0.27957766398,0.9601230805490001,0.0,0.0,0.007679448708779999,0.0,0.0,0.0
1117,8_85,8,85,0.0,0.0,-0.27957766398,0.9601230805490001,0.0,0.0,-0.0012217304764,0.0,0.0,0.0
1118,8_86,8,86,0.0,0.0,-0.280080344903,0.959976562422,0.0,0.0,-0.0298451302091,0.0,0.0,0.0
1119,8_87,8,87,0.0,0.0,-0.280331656578,0.959903204662,0.0,0.0,-0.025830872929500003,0.0,0.0,0.0
1120,8_88,8,88,0.0,0.0,-0.280499187022,0.9598542629379999,0.0,0.0,0.0136135681656,0.0,0.0,0.0
1121,8_89,8,89,0.0,0.0,-0.28041542286800003,0.959878737455,0.0,0.0,0.009250245035569999,0.0,0.0,0.0
1122,8_90,8,90,0.0,0.0,-0.280499187022,0.9598542629379999,0.0,0.0,0.0013962634016,0.0,0.0,0.0
1123,8_91,8,91,0.0,0.0,-0.28083422227,0.959756291775,0.0,0.0,-0.005759586531579999,0.0,0.0,0.0
1124,8_92,8,92,0.0,0.0,-0.280917975737,0.959731780711,0.0,0.0,-0.00977384381117,0.0,0.0,0.0
1125,8_93,8,93,0.0,0.0,-0.280917975737,0.959731780711,0.0,0.0,0.00942477796077,0.0,0.0,0.0
1126,8_94,8,94,0.0,0.0,-0.281085476253,0.9596827366580001,0.0,0.0,-0.0179768912955,0.0,0.0,0.0
1127,8_95,8,95,0.0,0.0,-0.281252968206,0.959633663371,0.0,0.0,-0.0164060949687,0.0,0.0,0.0
1128,8_96,8,96,0.0,0.0,-0.281671660596,0.959510852267,0.0,0.0,-0.006981317007979999,0.0,0.0,0.0
1129,8_97,8,97,0.0,0.0,-0.281336710971,0.959609115766,0.0,0.0,0.007853981633970001,0.0,0.0,0.0
1130,8_98,8,98,0.0,0.0,-0.281671660596,0.959510852267,0.0,0.0,-0.030717794835099996,0.0,0.0,0.0
1131,8_99,8,99,0.0,0.0,-0.2820065759,0.9594124718539999,0.0,0.0,-0.013962634016,0.0,0.0,0.0
1132,8_100,8,100,0.0,0.0,-0.281755392641,0.959486268124,0.0,0.0,0.015533430342700001,0.0,0.0,0.0
1133,8_101,8,101,0.0,0.0,-0.28183912254099996,0.9594616766740001,0.0,0.0,-0.00471238898038,0.0,0.0,0.0
1134,8_102,8,102,0.0,0.0,-0.282592594976,0.959240024845,0.0,0.0,-0.022340214425499997,0.0,0.0,0.0
1135,8_103,8,103,0.0,0.0,-0.282090299359,0.959387858485,0.0,0.0,0.0291469985083,0.0,0.0,0.0
1136,8_104,8,104,0.0,0.0,-0.282090299359,0.959387858485,0.0,0.0,-0.0012217304764,0.0,0.0,0.0
1137,8_105,8,105,0.0,0.0,-0.281336710971,0.959609115766,0.0,0.0,0.0212930168743,0.0,0.0,0.0
1138,8_106,8,106,0.0,0.0,-0.281420451592,0.959584560852,0.0,0.0,-0.011344640138,0.0,0.0,0.0
1139,8_107,8,107,0.0,0.0,-0.281504190071,0.959559998631,0.0,0.0,-0.011868238913600001,0.0,0.0,0.0
1140,8_108,8,108,0.0,0.0,-0.282090299359,0.959387858485,0.0,0.0,-0.0280998009571,0.0,0.0,0.0
1141,8_109,8,109,0.0,0.0,-0.282425171705,0.9592893319470001,0.0,0.0,-0.0219911485751,0.0,0.0,0.0
1142,8_110,8,110,0.0,0.0,-0.282257739831,0.959338609827,0.0,0.0,0.0436332312999,0.0,0.0,0.0
1143,8_111,8,111,0.0,0.0,-0.281922850294,0.9594370779170001,0.0,0.0,-0.0183259571459,0.0,0.0,0.0
1144,8_112,8,112,0.0,0.0,-0.282425171705,0.9592893319470001,0.0,0.0,-0.0280998009571,0.0,0.0,0.0
1145,8_113,8,113,0.0,0.0,-0.282676303383,0.9592153603370001,0.0,0.0,-0.0312413936107,0.0,0.0,0.0
1146,8_114,8,114,0.0,0.0,-0.282592594976,0.959240024845,0.0,0.0,0.0242600766027,0.0,0.0,0.0
1147,8_115,8,115,0.0,0.0,-0.282425171705,0.9592893319470001,0.0,0.0,0.0150098315672,0.0,0.0,0.0
1148,8_116,8,116,0.0,0.0,-0.282508884416,0.959264682049,0.0,0.0,-0.027052603405900003,0.0,0.0,0.0
1149,8_117,8,117,0.0,0.0,-0.2831785086,0.9590672198899999,0.0,0.0,-0.0134390352404,0.0,0.0,0.0
1150,8_118,8,118,0.0,0.0,-0.283345893093,0.959017781309,0.0,0.0,-0.0101229096616,0.0,0.0,0.0
1151,8_119,8,119,0.0,0.0,-0.28284371374,0.9591660094050001,0.0,0.0,0.0116937059884,0.0,0.0,0.0
1152,8_120,8,120,0.0,0.0,-0.2831785086,0.9590672198899999,0.0,0.0,-0.0375245789179,0.0,0.0,0.0
1153,8_121,8,121,0.0,0.0,-0.283931670816,0.958844516232,0.0,0.0,0.0195476876223,0.0,0.0,0.0
1154,8_122,8,122,0.0,0.0,-0.28359695364799997,0.958943568664,0.0,0.0,-0.00471238898038,0.0,0.0,0.0
1155,8_123,8,123,0.0,0.0,-0.28376431655400003,0.958894057052,0.0,0.0,-0.039618974020300006,0.0,0.0,0.0
1156,8_124,8,124,0.0,0.0,-0.284517342588,0.958670893355,0.0,0.0,0.0101229096616,0.0,0.0,0.0
1157,8_125,8,125,0.0,0.0,-0.28401534470400003,0.958819734868,0.0,0.0,0.0101229096616,0.0,0.0,0.0
1158,8_126,8,126,0.0,0.0,-0.284266353388,0.9587453469670001,0.0,0.0,-0.027052603405900003,0.0,0.0,0.0
1159,8_127,8,127,0.0,0.0,-0.28493561457899996,0.9585466579899999,0.0,0.0,0.00488692190558,0.0,0.0,0.0
1160,8_128,8,128,0.0,0.0,-0.284517342588,0.958670893355,0.0,0.0,-0.004014257279590001,0.0,0.0,0.0
1161,9_0,9,0,0.0,0.0,-0.284768312288,0.9585963740369999,0.0,0.0,-0.035081117965099995,0.0,0.0,0.0
1162,9_1,9,1,0.0,0.0,-0.28510290819,0.9584969127449999,0.0,0.0,-0.039618974020300006,0.0,0.0,0.0
1163,9_2,9,2,0.0,0.0,-0.285437469354,0.9583973346629999,0.0,0.0,0.0160570291183,0.0,0.0,0.0
1164,9_3,9,3,0.0,0.0,-0.28493561457899996,0.9585466579899999,0.0,0.0,-0.000698131700798,0.0,0.0,0.0
1165,9_4,9,4,0.0,0.0,-0.284684657889,0.95862122111,0.0,0.0,-0.0190240888467,0.0,0.0,0.0
1166,9_5,9,5,0.0,0.0,-0.285270193117,0.958447138302,0.0,0.0,-0.0427605666739,0.0,0.0,0.0
1167,9_6,9,6,0.0,0.0,-0.28518655174,0.958472029173,0.0,0.0,0.0301941960595,0.0,0.0,0.0
1168,9_7,9,7,0.0,0.0,-0.285270193117,0.958447138302,0.0,0.0,-0.0020943951023900003,0.0,0.0,0.0
1169,9_8,9,8,0.0,0.0,-0.28518655174,0.958472029173,0.0,0.0,0.00453785605519,0.0,0.0,0.0
1170,9_9,9,9,0.0,0.0,-0.286106487302,0.9581978281769999,0.0,0.0,-0.0322885911619,0.0,0.0,0.0
1171,9_10,9,10,0.0,0.0,-0.286106487302,0.9581978281769999,0.0,0.0,0.00750491578358,0.0,0.0,0.0
1172,9_11,9,11,0.0,0.0,-0.285688367405,0.958322574465,0.0,0.0,-0.00244346095279,0.0,0.0,0.0
1173,9_12,9,12,0.0,0.0,-0.285688367405,0.958322574465,0.0,0.0,-0.00226892802759,0.0,0.0,0.0
1174,9_13,9,13,0.0,0.0,-0.286106487302,0.9581978281769999,0.0,0.0,-0.0329867228627,0.0,0.0,0.0
1175,9_14,9,14,0.0,0.0,-0.286357333099,0.958122892838,0.0,0.0,-0.0207694180987,0.0,0.0,0.0
1176,9_15,9,15,0.0,0.0,-0.286106487302,0.9581978281769999,0.0,0.0,0.00977384381117,0.0,0.0,0.0
1177,9_16,9,16,0.0,0.0,-0.286022867677,0.9582227920299999,0.0,0.0,0.0162315620435,0.0,0.0,0.0
1178,9_17,9,17,0.0,0.0,-0.286022867677,0.9582227920299999,0.0,0.0,-0.0115191730632,0.0,0.0,0.0
1179,9_18,9,18,0.0,0.0,-0.286942563604,0.957947788344,0.0,0.0,-0.0169296937443,0.0,0.0,0.0
1180,9_19,9,19,0.0,0.0,-0.28660815927,0.9580478918299999,0.0,0.0,0.0038397243543899996,0.0,0.0,0.0
1181,9_20,9,20,0.0,0.0,-0.28660815927,0.9580478918299999,0.0,0.0,0.0132645023152,0.0,0.0,0.0
1182,9_21,9,21,0.0,0.0,-0.287026159226,0.957922744234,0.0,0.0,-0.011868238913600001,0.0,0.0,0.0
1183,9_22,9,22,0.0,0.0,-0.286942563604,0.957947788344,0.0,0.0,-0.014137166941200001,0.0,0.0,0.0
1184,9_23,9,23,0.0,0.0,-0.287444104536,0.957797414262,0.0,0.0,-0.00820304748437,0.0,0.0,0.0
1185,9_24,9,24,0.0,0.0,-0.287861995122,0.95767190194,0.0,0.0,-0.0012217304764,0.0,0.0,0.0
1186,9_25,9,25,0.0,0.0,-0.28769484546,0.957722128749,0.0,0.0,-0.0226892802759,0.0,0.0,0.0
1187,9_26,9,26,0.0,0.0,-0.287945566665,0.9576467775949999,0.0,0.0,0.007853981633970001,0.0,0.0,0.0
1188,9_27,9,27,0.0,0.0,-0.288530506031,0.957470702993,0.0,0.0,-0.0158824961931,0.0,0.0,0.0
1189,9_28,9,28,0.0,0.0,-0.288363391474,0.9575210464830001,0.0,0.0,-0.027227136331099997,0.0,0.0,0.0
1190,9_29,9,29,0.0,0.0,-0.288446949851,0.9574958783840001,0.0,0.0,0.014137166941200001,0.0,0.0,0.0
1191,9_30,9,30,0.0,0.0,-0.288196268134,0.957571360805,0.0,0.0,0.0242600766027,0.0,0.0,0.0
1192,9_31,9,31,0.0,0.0,-0.288697611798,0.957420330337,0.0,0.0,-0.0214675497995,0.0,0.0,0.0
1193,9_32,9,32,0.0,0.0,-0.288530506031,0.957470702993,0.0,0.0,0.0242600766027,0.0,0.0,0.0
1194,9_33,9,33,0.0,0.0,-0.28911533773000003,0.9572942711040001,0.0,0.0,-0.028972465583099998,0.0,0.0,0.0
1195,9_34,9,34,0.0,0.0,-0.288781161384,0.957395133072,0.0,0.0,-0.020071286397900002,0.0,0.0,0.0
1196,9_35,9,35,0.0,0.0,-0.289198876314,0.957269037387,0.0,0.0,-0.0466002910282,0.0,0.0,0.0
1197,9_36,9,36,0.0,0.0,-0.289449478848,0.9571932924940001,0.0,0.0,0.00610865238198,0.0,0.0,0.0
1198,9_37,9,37,0.0,0.0,-0.289616536184,0.9571427594509999,0.0,0.0,-0.0280998009571,0.0,0.0,0.0
1199,9_38,9,38,0.0,0.0,-0.289533008618,0.9571680296170001,0.0,0.0,0.028274333882299996,0.0,0.0,0.0
1200,9_39,9,39,0.0,0.0,-0.289616536184,0.9571427594509999,0.0,0.0,-0.0321140582367,0.0,0.0,0.0
1201,9_40,9,40,0.0,0.0,-0.299457129666,0.954109756523,0.0,0.0,-0.37524578917900003,0.0,0.0,0.0
1202,9_41,9,41,0.0,0.0,-0.306858322026,0.9517552049779999,0.0,0.0,-0.246091424531,0.0,0.0,0.0
1203,9_42,9,42,0.0,0.0,-0.30893399786,0.951083479494,0.0,0.0,-0.225671072283,0.0,0.0,0.0
1204,9_43,9,43,0.0,0.0,-0.315814642245,0.9488209060430001,0.0,0.0,-0.261973920724,0.0,0.0,0.0
1205,9_44,9,44,0.0,0.0,-0.318297564451,0.947990854631,0.0,0.0,-0.28064894372099997,0.0,0.0,0.0
1206,9_45,9,45,0.0,0.0,-0.3265581205,0.945177123049,0.0,0.0,-0.301418361819,0.0,0.0,0.0
1207,9_46,9,46,0.0,0.0,-0.33955886452399997,0.94058480613,0.0,0.0,-0.643328362285,0.0,0.0,0.0
1208,9_47,9,47,0.0,0.0,-0.357064076459,0.9340798923549999,0.0,0.0,-0.522726110972,0.0,0.0,0.0
1209,9_48,9,48,0.0,0.0,-0.370152132628,0.928971150634,0.0,0.0,-0.49829150144400003,0.0,0.0,0.0
1210,9_49,9,49,0.0,0.0,-0.386469516737,0.9223021807590001,0.0,0.0,-0.570722665402,0.0,0.0,0.0
1211,9_50,9,50,0.0,0.0,-0.400828784059,0.9161529816959999,0.0,0.0,-0.573166126355,0.0,0.0,0.0
1212,9_51,9,51,0.0,0.0,-0.418025632026,0.908435232127,0.0,0.0,-0.595680873706,0.0,0.0,0.0
1213,9_52,9,52,0.0,0.0,-0.43224314168899997,0.9017570994799999,0.0,0.0,-0.5324999547829999,0.0,0.0,0.0
1214,9_53,9,53,0.0,0.0,-0.444713343089,0.89567295509,0.0,0.0,-0.382576172037,0.0,0.0,0.0
1215,9_54,9,54,0.0,0.0,-0.456088622262,0.889934361986,0.0,0.0,-0.529532895055,0.0,0.0,0.0
1216,9_55,9,55,0.0,0.0,-0.47347340441200003,0.880808114923,0.0,0.0,-0.622733477112,0.0,0.0,0.0
1217,9_56,9,56,0.0,0.0,-0.47853861371399997,0.8780665095450001,0.0,0.0,-0.616101225954,0.0,0.0,0.0
1218,9_57,9,57,0.0,0.0,-0.492879209759,0.870097744272,0.0,0.0,-0.5675810727489999,0.0,0.0,0.0
1219,9_58,9,58,0.0,0.0,-0.507839097349,0.861451943641,0.0,0.0,-0.48397980157799997,0.0,0.0,0.0
1220,9_59,9,59,0.0,0.0,-0.5114430730039999,0.859317160934,0.0,0.0,-0.44401176170699996,0.0,0.0,0.0
1221,9_60,9,60,0.0,0.0,-0.522572969617,0.852594564506,0.0,0.0,-0.5035274892,0.0,0.0,0.0
1222,9_61,9,61,0.0,0.0,-0.538697265115,0.84249941042,0.0,0.0,-0.6339035843240001,0.0,0.0,0.0
1223,9_62,9,62,0.0,0.0,-0.54354075151,0.839382780052,0.0,0.0,-0.619068285682,0.0,0.0,0.0
1224,9_63,9,63,0.0,0.0,-0.5591205541650001,0.8290863681849999,0.0,0.0,-0.53407075111,0.0,0.0,0.0
1225,9_64,9,64,0.0,0.0,-0.570928524484,0.8209997685320001,0.0,0.0,-0.48921578933399995,0.0,0.0,0.0
1226,9_65,9,65,0.0,0.0,-0.574576791052,0.818450677307,0.0,0.0,-0.472460628515,0.0,0.0,0.0
1227,9_66,9,66,0.0,0.0,-0.587997032301,0.808863084833,0.0,0.0,-0.545240858323,0.0,0.0,0.0
1228,9_67,9,67,0.0,0.0,-0.592294464767,0.8057215815690001,0.0,0.0,-0.5801474433630001,0.0,0.0,0.0
1229,9_68,9,68,0.0,0.0,-0.6079302976950001,0.793990398648,0.0,0.0,-0.5970771371069999,0.0,0.0,0.0
1230,9_69,9,69,0.0,0.0,-0.6213529294569999,0.7835308143619999,0.0,0.0,-0.599346065135,0.0,0.0,0.0
1231,9_70,9,70,0.0,0.0,-0.625583123811,0.780157519481,0.0,0.0,-0.575958653158,0.0,0.0,0.0
1232,9_71,9,71,0.0,0.0,-0.638700672306,0.769455295125,0.0,0.0,-0.479965544298,0.0,0.0,0.0
1233,9_72,9,72,0.0,0.0,-0.642051963769,0.766661121892,0.0,0.0,-0.47699848456999994,0.0,0.0,0.0
1234,9_73,9,73,0.0,0.0,-0.653222400758,0.7571660948219999,0.0,0.0,-0.557283630162,0.0,0.0,0.0
1235,9_74,9,74,0.0,0.0,-0.667702638429,0.744428093663,0.0,0.0,-0.590270353024,0.0,0.0,0.0
1236,9_75,9,75,0.0,0.0,-0.679889387533,0.733314680557,0.0,0.0,-0.603011256564,0.0,0.0,0.0
1237,9_76,9,76,0.0,0.0,-0.693276057822,0.720672122155,0.0,0.0,-0.526740368252,0.0,0.0,0.0
1238,9_77,9,77,0.0,0.0,-0.702898299792,0.711290362756,0.0,0.0,-0.462512251778,0.0,0.0,0.0
1239,9_78,9,78,0.0,0.0,-0.715082978952,0.699039579147,0.0,0.0,-0.593761011528,0.0,0.0,0.0
1240,9_79,9,79,0.0,0.0,-0.727173991201,0.686453193248,0.0,0.0,-0.625526003915,0.0,0.0,0.0
1241,9_80,9,80,0.0,0.0,-0.7402767997409999,0.6723022086570001,0.0,0.0,-0.562868683768,0.0,0.0,0.0
1242,9_81,9,81,0.0,0.0,-0.7501687771209999,0.661246403266,0.0,0.0,-0.5066690818540001,0.0,0.0,0.0
1243,9_82,9,82,0.0,0.0,-0.754423248635,0.656388270705,0.0,0.0,-0.453785605519,0.0,0.0,0.0
1244,9_83,9,83,0.0,0.0,-0.7634015984870001,0.6459241437100001,0.0,0.0,-0.51591932689,0.0,0.0,0.0
1245,9_84,9,84,0.0,0.0,-0.775440644294,0.631420467816,0.0,0.0,-0.601440460237,0.0,0.0,0.0
1246,9_85,9,85,0.0,0.0,-0.7789550490610001,0.627079764896,0.0,0.0,-0.60824724432,0.0,0.0,0.0
1247,9_86,9,86,0.0,0.0,-0.78978046136,0.6133896174979999,0.0,0.0,-0.6365215782020001,0.0,0.0,0.0
1248,9_87,9,87,0.0,0.0,-0.793353340291,0.608761429009,0.0,0.0,-0.63041292582,0.0,0.0,0.0
1249,9_88,9,88,0.0,0.0,-0.804582973635,0.593840246647,0.0,0.0,-0.530231026756,0.0,0.0,0.0
1250,9_89,9,89,0.0,0.0,-0.807372435998,0.590042159163,0.0,0.0,-0.508239878181,0.0,0.0,0.0
1251,9_90,9,90,0.0,0.0,-0.8167422735609999,0.577002650408,0.0,0.0,-0.505447351378,0.0,0.0,0.0
1252,9_91,9,91,0.0,0.0,-0.8253599330850001,0.564606925974,0.0,0.0,-0.583987167717,0.0,0.0,0.0
1253,9_92,9,92,0.0,0.0,-0.8285004040189999,0.559988464649,0.0,0.0,-0.611563369899,0.0,0.0,0.0
1254,9_93,9,93,0.0,0.0,-0.836668732904,0.5477092580749999,0.0,0.0,-0.22985986248799997,0.0,0.0,0.0
1255,9_94,9,94,0.0,0.0,-0.837528040042,0.546394346734,0.0,0.0,-0.160046692408,0.0,0.0,0.0
1256,9_95,9,95,0.0,0.0,-0.840708393566,0.541488131899,0.0,0.0,-0.180467044656,0.0,0.0,0.0
1257,9_96,9,96,0.0,0.0,-0.844748502427,0.535163496183,0.0,0.0,-0.320616983591,0.0,0.0,0.0
1258,9_97,9,97,0.0,0.0,-0.850030620565,0.526733276054,0.0,0.0,-0.324282175021,0.0,0.0,0.0
1259,9_98,9,98,0.0,0.0,-0.8540051388850001,0.520264569962,0.0,0.0,-0.16877333866799998,0.0,0.0,0.0
1260,9_99,9,99,0.0,0.0,-0.8539143225810001,0.5204136140519999,0.0,0.0,-0.0195476876223,0.0,0.0,0.0
1261,9_100,9,100,0.0,0.0,-0.853823480265,0.5205626422899999,0.0,0.0,0.021118483949099997,0.0,0.0,0.0
1262,9_101,9,101,0.0,0.0,-0.854232065826,0.519891890411,0.0,0.0,-0.028972465583099998,0.0,0.0,0.0
1263,9_102,9,102,0.0,0.0,-0.8544588301330001,0.51951911188,0.0,0.0,-0.005759586531579999,0.0,0.0,0.0
1264,9_103,9,103,0.0,0.0,-0.854549490308,0.519369972768,0.0,0.0,0.005759586531579999,0.0,0.0,0.0
1265,9_104,9,104,0.0,0.0,-0.854776026856,0.518997055784,0.0,0.0,-0.041015237421900004,0.0,0.0,0.0
1266,9_105,9,105,0.0,0.0,-0.855002400666,0.51862403999,0.0,0.0,0.00157079632679,0.0,0.0,0.0
1267,9_106,9,106,0.0,0.0,-0.855228611695,0.518250925458,0.0,0.0,-0.0144862327916,0.0,0.0,0.0
1268,9_107,9,107,0.0,0.0,-0.85549985,0.5178030577839999,0.0,0.0,-0.020943951023900002,0.0,0.0,0.0
1269,9_108,9,108,0.0,0.0,-0.855590210652,0.517653737006,0.0,0.0,-0.0165806278939,0.0,0.0,0.0
1270,9_109,9,109,0.0,0.0,-0.855590210652,0.517653737006,0.0,0.0,-0.00733038285838,0.0,0.0,0.0
1271,9_110,9,110,0.0,0.0,-0.855996511019,0.516981598438,0.0,0.0,-0.0150098315672,0.0,0.0,0.0
1272,9_111,9,111,0.0,0.0,-0.856041622915,0.516906896682,0.0,0.0,-0.008901179185170001,0.0,0.0,0.0
1273,9_112,9,112,0.0,0.0,-0.8561769194859999,0.5166827677979999,0.0,0.0,-0.00942477796077,0.0,0.0,0.0
1274,9_113,9,113,0.0,0.0,-0.8562670845999999,0.516533328867,0.0,0.0,-0.0115191730632,0.0,0.0,0.0
1275,9_114,9,114,0.0,0.0,-0.856402283364,0.516309140969,0.0,0.0,-0.012217304764,0.0,0.0,0.0
1276,9_115,9,115,0.0,0.0,-0.856492383265,0.516159662711,0.0,0.0,-0.0111701072128,0.0,0.0,0.0
1277,9_116,9,116,0.0,0.0,-0.856402283364,0.516309140969,0.0,0.0,0.004363323129989999,0.0,0.0,0.0
1278,9_117,9,117,0.0,0.0,-0.856447336576,0.5162344038059999,0.0,0.0,-0.00872664625997,0.0,0.0,0.0
1279,9_118,9,118,0.0,0.0,-0.8565824570749999,0.516010168729,0.0,0.0,-0.0310668606855,0.0,0.0,0.0
1280,9_119,9,119,0.0,0.0,-0.857032434676,0.515262463132,0.0,0.0,-0.0225147473507,0.0,0.0,0.0
1281,9_120,9,120,0.0,0.0,-0.857122351887,0.515112874907,0.0,0.0,-0.0144862327916,0.0,0.0,0.0
1282,9_121,9,121,0.0,0.0,-0.8575715462469999,0.514364698505,0.0,0.0,-0.028274333882299996,0.0,0.0,0.0
1283,9_122,9,122,0.0,0.0,-0.857616429769,0.514289859311,0.0,0.0,0.000174532925199,0.0,0.0,0.0
1284,9_123,9,123,0.0,0.0,-0.85766130676,0.514215016201,0.0,0.0,-0.0319395253115,0.0,0.0,0.0
1285,9_124,9,124,0.0,0.0,-0.8580200875280001,0.513616130392,0.0,0.0,0.00855211333477,0.0,0.0,0.0
