time,.header.seq,.header.stamp.secs,.header.stamp.nsecs,.header.frame_id,.orientation.x,.orientation.y,.orientation.z,.orientation.w,.orientation_covariance,.angular_velocity.x,.angular_velocity.y,.angular_velocity.z,.angular_velocity_covariance,.linear_acceleration.x,.linear_acceleration.y,.linear_acceleration.z,.linear_acceleration_covariance
2019/10/07/19:21:11.035328,7764,1570443671,34824448,gyro_link,0.0,0.0,0.487935834103,0.872879500159,"(1.7976931348623157e+308, 0.0, 0.0, 0.0, 1.7976931348623157e+308, 0.0, 0.0, 0.0, 0.05)",0.0,0.0,0.0,"(1.7976931348623157e+308, 0.0, 0.0, 0.0, 1.7976931348623157e+308, 0.0, 0.0, 0.0, 0.05)",0.0,0.0,0.0,"(0.0, 0.0, 0.0, 0.0, 0.0, 0.0, 0.0, 0.0, 0.0)"
2019/10/07/19:21:11.093201,7765,1570443671,92611099,gyro_link,0.0,0.0,0.487935834103,0.872879500159,"(1.7976931348623157e+308, 0.0, 0.0, 0.0, 1.7976931348623157e+308, 0.0, 0.0, 0.0, 0.05)",0.0,0.0,0.0,"(1.7976931348623157e+308, 0.0, 0.0, 0.0, 1.7976931348623157e+308, 0.0, 0.0, 0.0, 0.05)",0.0,0.0,0.0,"(0.0, 0.0, 0.0, 0.0, 0.0, 0.0, 0.0, 0.0, 0.0)"
2019/10/07/19:21:11.115104,7766,1570443671,114510638,gyro_link,0.0,0.0,0.487935834103,0.872879500159,"(1.7976931348623157e+308, 0.0, 0.0, 0.0, 1.7976931348623157e+308, 0.0, 0.0, 0.0, 0.05)",0.0,0.0,0.0,"(1.7976931348623157e+308, 0.0, 0.0, 0.0, 1.7976931348623157e+308, 0.0, 0.0, 0.0, 0.05)",0.0,0.0,0.0,"(0.0, 0.0, 0.0, 0.0, 0.0, 0.0, 0.0, 0.0, 0.0)"
2019/10/07/19:21:11.174930,7767,1570443671,174370555,gyro_link,0.0,0.0,0.487935834103,0.872879500159,"(1.7976931348623157e+308, 0.0, 0.0, 0.0, 1.7976931348623157e+308, 0.0, 0.0, 0.0, 0.05)",0.0,0.0,0.0,"(1.7976931348623157e+308, 0.0, 0.0, 0.0, 1.7976931348623157e+308, 0.0, 0.0, 0.0, 0.05)",0.0,0.0,0.0,"(0.0, 0.0, 0.0, 0.0, 0.0, 0.0, 0.0, 0.0, 0.0)"
2019/10/07/19:21:11.232596,7768,1570443671,232206454,gyro_link,0.0,0.0,0.487935834103,0.872879500159,"(1.7976931348623157e+308, 0.0, 0.0, 0.0, 1.7976931348623157e+308, 0.0, 0.0, 0.0, 0.05)",0.0,0.0,0.0,"(1.7976931348623157e+308, 0.0, 0.0, 0.0, 1.7976931348623157e+308, 0.0, 0.0, 0.0, 0.05)",0.0,0.0,0.0,"(0.0, 0.0, 0.0, 0.0, 0.0, 0.0, 0.0, 0.0, 0.0)"
2019/10/07/19:21:11.253935,7769,1570443671,253743828,gyro_link,0.0,0.0,0.487935834103,0.872879500159,"(1.7976931348623157e+308, 0.0, 0.0, 0.0, 1.7976931348623157e+308, 0.0, 0.0, 0.0, 0.05)",0.0,0.0,0.0,"(1.7976931348623157e+308, 0.0, 0.0, 0.0, 1.7976931348623157e+308, 0.0, 0.0, 0.0, 0.05)",0.0,0.0,0.0,"(0.0, 0.0, 0.0, 0.0, 0.0, 0.0, 0.0, 0.0, 0.0)"
2019/10/07/19:21:11.313836,7770,1570443671,313558919,gyro_link,0.0,0.0,0.487935834103,0.872879500159,"(1.7976931348623157e+308, 0.0, 0.0, 0.0, 1.7976931348623157e+308, 0.0, 0.0, 0.0, 0.05)",0.0,0.0,0.0,"(1.7976931348623157e+308, 0.0, 0.0, 0.0, 1.7976931348623157e+308, 0.0, 0.0, 0.0, 0.05)",0.0,0.0,0.0,"(0.0, 0.0, 0.0, 0.0, 0.0, 0.0, 0.0, 0.0, 0.0)"
2019/10/07/19:21:11.372315,7771,1570443671,371960338,gyro_link,0.0,0.0,0.487935834103,0.872879500159,"(1.7976931348623157e+308, 0.0, 0.0, 0.0, 1.7976931348623157e+308, 0.0, 0.0, 0.0, 0.05)",0.0,0.0,0.0,"(1.7976931348623157e+308, 0.0, 0.0, 0.0, 1.7976931348623157e+308, 0.0, 0.0, 0.0, 0.05)",0.0,0.0,0.0,"(0.0, 0.0, 0.0, 0.0, 0.0, 0.0, 0.0, 0.0, 0.0)"
2019/10/07/19:21:11.394338,7772,1570443671,393962935,gyro_link,0.0,0.0,0.487935834103,0.872879500159,"(1.7976931348623157e+308, 0.0, 0.0, 0.0, 1.7976931348623157e+308, 0.0, 0.0, 0.0, 0.05)",0.0,0.0,0.0,"(1.7976931348623157e+308, 0.0, 0.0, 0.0, 1.7976931348623157e+308, 0.0, 0.0, 0.0, 0.05)",0.0,0.0,0.0,"(0.0, 0.0, 0.0, 0.0, 0.0, 0.0, 0.0, 0.0, 0.0)"
2019/10/07/19:21:11.452572,7773,1570443671,452065426,gyro_link,0.0,0.0,0.487935834103,0.872879500159,"(1.7976931348623157e+308, 0.0, 0.0, 0.0, 1.7976931348623157e+308, 0.0, 0.0, 0.0, 0.05)",0.0,0.0,0.0,"(1.7976931348623157e+308, 0.0, 0.0, 0.0, 1.7976931348623157e+308, 0.0, 0.0, 0.0, 0.05)",0.0,0.0,0.0,"(0.0, 0.0, 0.0, 0.0, 0.0, 0.0, 0.0, 0.0, 0.0)"
2019/10/07/19:21:11.474351,7774,1570443671,474011741,gyro_link,0.0,0.0,0.487935834103,0.872879500159,"(1.7976931348623157e+308, 0.0, 0.0, 0.0, 1.7976931348623157e+308, 0.0, 0.0, 0.0, 0.05)",0.0,0.0,0.0,"(1.7976931348623157e+308, 0.0, 0.0, 0.0, 1.7976931348623157e+308, 0.0, 0.0, 0.0, 0.05)",0.0,0.0,0.0,"(0.0, 0.0, 0.0, 0.0, 0.0, 0.0, 0.0, 0.0, 0.0)"
2019/10/07/19:21:11.534537,7775,1570443671,534070844,gyro_link,0.0,0.0,0.487935834103,0.872879500159,"(1.7976931348623157e+308, 0.0, 0.0, 0.0, 1.7976931348623157e+308, 0.0, 0.0, 0.0, 0.05)",0.0,0.0,0.0,"(1.7976931348623157e+308, 0.0, 0.0, 0.0, 1.7976931348623157e+308, 0.0, 0.0, 0.0, 0.05)",0.0,0.0,0.0,"(0.0, 0.0, 0.0, 0.0, 0.0, 0.0, 0.0, 0.0, 0.0)"
2019/10/07/19:21:11.594319,7776,1570443671,593926593,gyro_link,0.0,0.0,0.487935834103,0.872879500159,"(1.7976931348623157e+308, 0.0, 0.0, 0.0, 1.7976931348623157e+308, 0.0, 0.0, 0.0, 0.05)",0.0,0.0,0.0,"(1.7976931348623157e+308, 0.0, 0.0, 0.0, 1.7976931348623157e+308, 0.0, 0.0, 0.0, 0.05)",0.0,0.0,0.0,"(0.0, 0.0, 0.0, 0.0, 0.0, 0.0, 0.0, 0.0, 0.0)"
2019/10/07/19:21:11.653975,7777,1570443671,653568283,gyro_link,0.0,0.0,0.487935834103,0.872879500159,"(1.7976931348623157e+308, 0.0, 0.0, 0.0, 1.7976931348623157e+308, 0.0, 0.0, 0.0, 0.05)",0.0,0.0,0.0,"(1.7976931348623157e+308, 0.0, 0.0, 0.0, 1.7976931348623157e+308, 0.0, 0.0, 0.0, 0.05)",0.0,0.0,0.0,"(0.0, 0.0, 0.0, 0.0, 0.0, 0.0, 0.0, 0.0, 0.0)"
2019/10/07/19:21:11.714090,7778,1570443671,713503257,gyro_link,0.0,0.0,0.487935834103,0.872879500159,"(1.7976931348623157e+308, 0.0, 0.0, 0.0, 1.7976931348623157e+308, 0.0, 0.0, 0.0, 0.05)",0.0,0.0,0.0,"(1.7976931348623157e+308, 0.0, 0.0, 0.0, 1.7976931348623157e+308, 0.0, 0.0, 0.0, 0.05)",0.0,0.0,0.0,"(0.0, 0.0, 0.0, 0.0, 0.0, 0.0, 0.0, 0.0, 0.0)"
2019/10/07/19:21:11.773954,7779,1570443671,773423875,gyro_link,0.0,0.0,0.487935834103,0.872879500159,"(1.7976931348623157e+308, 0.0, 0.0, 0.0, 1.7976931348623157e+308, 0.0, 0.0, 0.0, 0.05)",0.0,0.0,0.0,"(1.7976931348623157e+308, 0.0, 0.0, 0.0, 1.7976931348623157e+308, 0.0, 0.0, 0.0, 0.05)",0.0,0.0,0.0,"(0.0, 0.0, 0.0, 0.0, 0.0, 0.0, 0.0, 0.0, 0.0)"
2019/10/07/19:21:11.833796,7780,1570443671,833352960,gyro_link,0.0,0.0,0.487935834103,0.872879500159,"(1.7976931348623157e+308, 0.0, 0.0, 0.0, 1.7976931348623157e+308, 0.0, 0.0, 0.0, 0.05)",0.0,0.0,0.0,"(1.7976931348623157e+308, 0.0, 0.0, 0.0, 1.7976931348623157e+308, 0.0, 0.0, 0.0, 0.05)",0.0,0.0,0.0,"(0.0, 0.0, 0.0, 0.0, 0.0, 0.0, 0.0, 0.0, 0.0)"
2019/10/07/19:21:11.892793,7781,1570443671,892153272,gyro_link,0.0,0.0,0.487935834103,0.872879500159,"(1.7976931348623157e+308, 0.0, 0.0, 0.0, 1.7976931348623157e+308, 0.0, 0.0, 0.0, 0.05)",0.0,0.0,0.0,"(1.7976931348623157e+308, 0.0, 0.0, 0.0, 1.7976931348623157e+308, 0.0, 0.0, 0.0, 0.05)",0.0,0.0,0.0,"(0.0, 0.0, 0.0, 0.0, 0.0, 0.0, 0.0, 0.0, 0.0)"
2019/10/07/19:21:11.913425,7782,1570443671,913045333,gyro_link,0.0,0.0,0.487935834103,0.872879500159,"(1.7976931348623157e+308, 0.0, 0.0, 0.0, 1.7976931348623157e+308, 0.0, 0.0, 0.0, 0.05)",0.0,0.0,0.0,"(1.7976931348623157e+308, 0.0, 0.0, 0.0, 1.7976931348623157e+308, 0.0, 0.0, 0.0, 0.05)",0.0,0.0,0.0,"(0.0, 0.0, 0.0, 0.0, 0.0, 0.0, 0.0, 0.0, 0.0)"
2019/10/07/19:21:11.972492,7783,1570443671,971926616,gyro_link,0.0,0.0,0.487935834103,0.872879500159,"(1.7976931348623157e+308, 0.0, 0.0, 0.0, 1.7976931348623157e+308, 0.0, 0.0, 0.0, 0.05)",0.0,0.0,0.0,"(1.7976931348623157e+308, 0.0, 0.0, 0.0, 1.7976931348623157e+308, 0.0, 0.0, 0.0, 0.05)",0.0,0.0,0.0,"(0.0, 0.0, 0.0, 0.0, 0.0, 0.0, 0.0, 0.0, 0.0)"
2019/10/07/19:21:12.030080,7784,1570443672,29558321,gyro_link,0.0,0.0,0.487935834103,0.872879500159,"(1.7976931348623157e+308, 0.0, 0.0, 0.0, 1.7976931348623157e+308, 0.0, 0.0, 0.0, 0.05)",0.0,0.0,0.0,"(1.7976931348623157e+308, 0.0, 0.0, 0.0, 1.7976931348623157e+308, 0.0, 0.0, 0.0, 0.05)",0.0,0.0,0.0,"(0.0, 0.0, 0.0, 0.0, 0.0, 0.0, 0.0, 0.0, 0.0)"
2019/10/07/19:21:12.053102,7785,1570443672,52679329,gyro_link,0.0,0.0,0.487935834103,0.872879500159,"(1.7976931348623157e+308, 0.0, 0.0, 0.0, 1.7976931348623157e+308, 0.0, 0.0, 0.0, 0.05)",0.0,0.0,0.0,"(1.7976931348623157e+308, 0.0, 0.0, 0.0, 1.7976931348623157e+308, 0.0, 0.0, 0.0, 0.05)",0.0,0.0,0.0,"(0.0, 0.0, 0.0, 0.0, 0.0, 0.0, 0.0, 0.0, 0.0)"
2019/10/07/19:21:12.112139,7786,1570443672,111556629,gyro_link,0.0,0.0,0.487935834103,0.872879500159,"(1.7976931348623157e+308, 0.0, 0.0, 0.0, 1.7976931348623157e+308, 0.0, 0.0, 0.0, 0.05)",0.0,0.0,0.0013962634016,"(1.7976931348623157e+308, 0.0, 0.0, 0.0, 1.7976931348623157e+308, 0.0, 0.0, 0.0, 0.05)",0.0,0.0,0.0,"(0.0, 0.0, 0.0, 0.0, 0.0, 0.0, 0.0, 0.0, 0.0)"
2019/10/07/19:21:12.170261,7787,1570443672,169530422,gyro_link,0.0,0.0,0.487935834103,0.872879500159,"(1.7976931348623157e+308, 0.0, 0.0, 0.0, 1.7976931348623157e+308, 0.0, 0.0, 0.0, 0.05)",0.0,0.0,0.000523598775598,"(1.7976931348623157e+308, 0.0, 0.0, 0.0, 1.7976931348623157e+308, 0.0, 0.0, 0.0, 0.05)",0.0,0.0,0.0,"(0.0, 0.0, 0.0, 0.0, 0.0, 0.0, 0.0, 0.0, 0.0)"
2019/10/07/19:21:12.191819,7788,1570443672,191439740,gyro_link,0.0,0.0,0.487935834103,0.872879500159,"(1.7976931348623157e+308, 0.0, 0.0, 0.0, 1.7976931348623157e+308, 0.0, 0.0, 0.0, 0.05)",0.0,0.0,0.0,"(1.7976931348623157e+308, 0.0, 0.0, 0.0, 1.7976931348623157e+308, 0.0, 0.0, 0.0, 0.05)",0.0,0.0,0.0,"(0.0, 0.0, 0.0, 0.0, 0.0, 0.0, 0.0, 0.0, 0.0)"
2019/10/07/19:21:12.251750,7789,1570443672,251376228,gyro_link,0.0,0.0,0.487935834103,0.872879500159,"(1.7976931348623157e+308, 0.0, 0.0, 0.0, 1.7976931348623157e+308, 0.0, 0.0, 0.0, 0.05)",0.0,0.0,-0.00174532925199,"(1.7976931348623157e+308, 0.0, 0.0, 0.0, 1.7976931348623157e+308, 0.0, 0.0, 0.0, 0.05)",0.0,0.0,0.0,"(0.0, 0.0, 0.0, 0.0, 0.0, 0.0, 0.0, 0.0, 0.0)"
2019/10/07/19:21:12.310125,7790,1570443672,309362348,gyro_link,0.0,0.0,0.488012005351,0.872836916401,"(1.7976931348623157e+308, 0.0, 0.0, 0.0, 1.7976931348623157e+308, 0.0, 0.0, 0.0, 0.05)",0.0,0.0,0.0240855436775,"(1.7976931348623157e+308, 0.0, 0.0, 0.0, 1.7976931348623157e+308, 0.0, 0.0, 0.0, 0.05)",0.0,0.0,0.0,"(0.0, 0.0, 0.0, 0.0, 0.0, 0.0, 0.0, 0.0, 0.0)"
2019/10/07/19:21:12.331786,7791,1570443672,331366557,gyro_link,0.0,0.0,0.488164336698,0.872751728945,"(1.7976931348623157e+308, 0.0, 0.0, 0.0, 1.7976931348623157e+308, 0.0, 0.0, 0.0, 0.05)",0.0,0.0,0.0143116998664,"(1.7976931348623157e+308, 0.0, 0.0, 0.0, 1.7976931348623157e+308, 0.0, 0.0, 0.0, 0.05)",0.0,0.0,0.0,"(0.0, 0.0, 0.0, 0.0, 0.0, 0.0, 0.0, 0.0, 0.0)"
2019/10/07/19:21:12.389737,7792,1570443672,389254635,gyro_link,0.0,0.0,0.488316653174,0.872666514903,"(1.7976931348623157e+308, 0.0, 0.0, 0.0, 1.7976931348623157e+308, 0.0, 0.0, 0.0, 0.05)",0.0,0.0,0.00837758040957,"(1.7976931348623157e+308, 0.0, 0.0, 0.0, 1.7976931348623157e+308, 0.0, 0.0, 0.0, 0.05)",0.0,0.0,0.0,"(0.0, 0.0, 0.0, 0.0, 0.0, 0.0, 0.0, 0.0, 0.0)"
2019/10/07/19:21:12.411702,7793,1570443672,411293353,gyro_link,0.0,0.0,0.488392805834,0.872623897913,"(1.7976931348623157e+308, 0.0, 0.0, 0.0, 1.7976931348623157e+308, 0.0, 0.0, 0.0, 0.05)",0.0,0.0,0.00244346095279,"(1.7976931348623157e+308, 0.0, 0.0, 0.0, 1.7976931348623157e+308, 0.0, 0.0, 0.0, 0.05)",0.0,0.0,0.0,"(0.0, 0.0, 0.0, 0.0, 0.0, 0.0, 0.0, 0.0, 0.0)"
2019/10/07/19:21:12.471634,7794,1570443672,471104907,gyro_link,0.0,0.0,0.488012005351,0.872836916401,"(1.7976931348623157e+308, 0.0, 0.0, 0.0, 1.7976931348623157e+308, 0.0, 0.0, 0.0, 0.05)",0.0,0.0,-0.0185004900711,"(1.7976931348623157e+308, 0.0, 0.0, 0.0, 1.7976931348623157e+308, 0.0, 0.0, 0.0, 0.05)",0.0,0.0,0.0,"(0.0, 0.0, 0.0, 0.0, 0.0, 0.0, 0.0, 0.0, 0.0)"
2019/10/07/19:21:12.531590,7795,1570443672,531004345,gyro_link,0.0,0.0,0.487402531354,0.87317740032,"(1.7976931348623157e+308, 0.0, 0.0, 0.0, 1.7976931348623157e+308, 0.0, 0.0, 0.0, 0.05)",0.0,0.0,-0.00663225115758,"(1.7976931348623157e+308, 0.0, 0.0, 0.0, 1.7976931348623157e+308, 0.0, 0.0, 0.0, 0.05)",0.0,0.0,0.0,"(0.0, 0.0, 0.0, 0.0, 0.0, 0.0, 0.0, 0.0, 0.0)"
2019/10/07/19:21:12.591324,7796,1570443672,590965544,gyro_link,0.0,0.0,0.487402531354,0.87317740032,"(1.7976931348623157e+308, 0.0, 0.0, 0.0, 1.7976931348623157e+308, 0.0, 0.0, 0.0, 0.05)",0.0,0.0,0.0012217304764,"(1.7976931348623157e+308, 0.0, 0.0, 0.0, 1.7976931348623157e+308, 0.0, 0.0, 0.0, 0.05)",0.0,0.0,0.0,"(0.0, 0.0, 0.0, 0.0, 0.0, 0.0, 0.0, 0.0, 0.0)"
2019/10/07/19:21:12.651375,7797,1570443672,650899675,gyro_link,0.0,0.0,0.487707298065,0.873007211547,"(1.7976931348623157e+308, 0.0, 0.0, 0.0, 1.7976931348623157e+308, 0.0, 0.0, 0.0, 0.05)",0.0,0.0,0.00802851455917,"(1.7976931348623157e+308, 0.0, 0.0, 0.0, 1.7976931348623157e+308, 0.0, 0.0, 0.0, 0.05)",0.0,0.0,0.0,"(0.0, 0.0, 0.0, 0.0, 0.0, 0.0, 0.0, 0.0, 0.0)"
2019/10/07/19:21:12.711409,7798,1570443672,710971802,gyro_link,0.0,0.0,0.488012005351,0.872836916401,"(1.7976931348623157e+308, 0.0, 0.0, 0.0, 1.7976931348623157e+308, 0.0, 0.0, 0.0, 0.05)",0.0,0.0,0.00628318530718,"(1.7976931348623157e+308, 0.0, 0.0, 0.0, 1.7976931348623157e+308, 0.0, 0.0, 0.0, 0.05)",0.0,0.0,0.0,"(0.0, 0.0, 0.0, 0.0, 0.0, 0.0, 0.0, 0.0, 0.0)"
2019/10/07/19:21:12.771374,7799,1570443672,770773480,gyro_link,0.0,0.0,0.487935834103,0.872879500159,"(1.7976931348623157e+308, 0.0, 0.0, 0.0, 1.7976931348623157e+308, 0.0, 0.0, 0.0, 0.05)",0.0,0.0,-0.00750491578358,"(1.7976931348623157e+308, 0.0, 0.0, 0.0, 1.7976931348623157e+308, 0.0, 0.0, 0.0, 0.05)",0.0,0.0,0.0,"(0.0, 0.0, 0.0, 0.0, 0.0, 0.0, 0.0, 0.0, 0.0)"
2019/10/07/19:21:12.830982,7800,1570443672,830543824,gyro_link,0.0,0.0,0.487326330395,0.87321993089,"(1.7976931348623157e+308, 0.0, 0.0, 0.0, 1.7976931348623157e+308, 0.0, 0.0, 0.0, 0.05)",0.0,0.0,-0.0228638132011,"(1.7976931348623157e+308, 0.0, 0.0, 0.0, 1.7976931348623157e+308, 0.0, 0.0, 0.0, 0.05)",0.0,0.0,0.0,"(0.0, 0.0, 0.0, 0.0, 0.0, 0.0, 0.0, 0.0, 0.0)"
2019/10/07/19:21:12.890902,7801,1570443672,890235256,gyro_link,0.0,0.0,0.487326330395,0.87321993089,"(1.7976931348623157e+308, 0.0, 0.0, 0.0, 1.7976931348623157e+308, 0.0, 0.0, 0.0, 0.05)",0.0,0.0,0.00802851455917,"(1.7976931348623157e+308, 0.0, 0.0, 0.0, 1.7976931348623157e+308, 0.0, 0.0, 0.0, 0.05)",0.0,0.0,0.0,"(0.0, 0.0, 0.0, 0.0, 0.0, 0.0, 0.0, 0.0, 0.0)"
2019/10/07/19:21:12.949576,7802,1570443672,949178545,gyro_link,0.0,0.0,0.487783480459,0.872964647733,"(1.7976931348623157e+308, 0.0, 0.0, 0.0, 1.7976931348623157e+308, 0.0, 0.0, 0.0, 0.05)",0.0,0.0,0.0137881010908,"(1.7976931348623157e+308, 0.0, 0.0, 0.0, 1.7976931348623157e+308, 0.0, 0.0, 0.0, 0.05)",0.0,0.0,0.0,"(0.0, 0.0, 0.0, 0.0, 0.0, 0.0, 0.0, 0.0, 0.0)"
2019/10/07/19:21:12.970736,7803,1570443672,970124296,gyro_link,0.0,0.0,0.487935834103,0.872879500159,"(1.7976931348623157e+308, 0.0, 0.0, 0.0, 1.7976931348623157e+308, 0.0, 0.0, 0.0, 0.05)",0.0,0.0,0.00733038285838,"(1.7976931348623157e+308, 0.0, 0.0, 0.0, 1.7976931348623157e+308, 0.0, 0.0, 0.0, 0.05)",0.0,0.0,0.0,"(0.0, 0.0, 0.0, 0.0, 0.0, 0.0, 0.0, 0.0, 0.0)"
2019/10/07/19:21:13.029209,7804,1570443673,28845486,gyro_link,0.0,0.0,0.487783480459,0.872964647733,"(1.7976931348623157e+308, 0.0, 0.0, 0.0, 1.7976931348623157e+308, 0.0, 0.0, 0.0, 0.05)",0.0,0.0,-0.0160570291183,"(1.7976931348623157e+308, 0.0, 0.0, 0.0, 1.7976931348623157e+308, 0.0, 0.0, 0.0, 0.05)",0.0,0.0,0.0,"(0.0, 0.0, 0.0, 0.0, 0.0, 0.0, 0.0, 0.0, 0.0)"
2019/10/07/19:21:13.087556,7805,1570443673,86977347,gyro_link,0.0,0.0,0.487478728601,0.873134863101,"(1.7976931348623157e+308, 0.0, 0.0, 0.0, 1.7976931348623157e+308, 0.0, 0.0, 0.0, 0.05)",0.0,0.0,-0.0158824961931,"(1.7976931348623157e+308, 0.0, 0.0, 0.0, 1.7976931348623157e+308, 0.0, 0.0, 0.0, 0.05)",0.0,0.0,0.0,"(0.0, 0.0, 0.0, 0.0, 0.0, 0.0, 0.0, 0.0, 0.0)"
2019/10/07/19:21:13.110272,7806,1570443673,109867639,gyro_link,0.0,0.0,0.487250125725,0.87326245481,"(1.7976931348623157e+308, 0.0, 0.0, 0.0, 1.7976931348623157e+308, 0.0, 0.0, 0.0, 0.05)",0.0,0.0,-0.0263544717051,"(1.7976931348623157e+308, 0.0, 0.0, 0.0, 1.7976931348623157e+308, 0.0, 0.0, 0.0, 0.05)",0.0,0.0,0.0,"(0.0, 0.0, 0.0, 0.0, 0.0, 0.0, 0.0, 0.0, 0.0)"
2019/10/07/19:21:13.169228,7807,1570443673,168806099,gyro_link,0.0,0.0,0.486869046728,0.873474974649,"(1.7976931348623157e+308, 0.0, 0.0, 0.0, 1.7976931348623157e+308, 0.0, 0.0, 0.0, 0.05)",0.0,0.0,-0.00820304748437,"(1.7976931348623157e+308, 0.0, 0.0, 0.0, 1.7976931348623157e+308, 0.0, 0.0, 0.0, 0.05)",0.0,0.0,0.0,"(0.0, 0.0, 0.0, 0.0, 0.0, 0.0, 0.0, 0.0, 0.0)"
2019/10/07/19:21:13.227569,7808,1570443673,226920610,gyro_link,0.0,0.0,0.487173917345,0.87330497208,"(1.7976931348623157e+308, 0.0, 0.0, 0.0, 1.7976931348623157e+308, 0.0, 0.0, 0.0, 0.05)",0.0,0.0,0.0193731546971,"(1.7976931348623157e+308, 0.0, 0.0, 0.0, 1.7976931348623157e+308, 0.0, 0.0, 0.0, 0.05)",0.0,0.0,0.0,"(0.0, 0.0, 0.0, 0.0, 0.0, 0.0, 0.0, 0.0, 0.0)"
2019/10/07/19:21:13.248983,7809,1570443673,248530420,gyro_link,0.0,0.0,0.487326330395,0.87321993089,"(1.7976931348623157e+308, 0.0, 0.0, 0.0, 1.7976931348623157e+308, 0.0, 0.0, 0.0, 0.05)",0.0,0.0,0.0125663706144,"(1.7976931348623157e+308, 0.0, 0.0, 0.0, 1.7976931348623157e+308, 0.0, 0.0, 0.0, 0.05)",0.0,0.0,0.0,"(0.0, 0.0, 0.0, 0.0, 0.0, 0.0, 0.0, 0.0, 0.0)"
2019/10/07/19:21:13.309064,7810,1570443673,308577643,gyro_link,0.0,0.0,0.487631111957,0.873049768714,"(1.7976931348623157e+308, 0.0, 0.0, 0.0, 1.7976931348623157e+308, 0.0, 0.0, 0.0, 0.05)",0.0,0.0,0.00925024503557,"(1.7976931348623157e+308, 0.0, 0.0, 0.0, 1.7976931348623157e+308, 0.0, 0.0, 0.0, 0.05)",0.0,0.0,0.0,"(0.0, 0.0, 0.0, 0.0, 0.0, 0.0, 0.0, 0.0, 0.0)"
2019/10/07/19:21:13.366962,7811,1570443673,366337856,gyro_link,0.0,0.0,0.487631111957,0.873049768714,"(1.7976931348623157e+308, 0.0, 0.0, 0.0, 1.7976931348623157e+308, 0.0, 0.0, 0.0, 0.05)",0.0,0.0,-0.00541052068118,"(1.7976931348623157e+308, 0.0, 0.0, 0.0, 1.7976931348623157e+308, 0.0, 0.0, 0.0, 0.05)",0.0,0.0,0.0,"(0.0, 0.0, 0.0, 0.0, 0.0, 0.0, 0.0, 0.0, 0.0)"
2019/10/07/19:21:13.388766,7812,1570443673,388449168,gyro_link,0.0,0.0,0.487554922136,0.873092319232,"(1.7976931348623157e+308, 0.0, 0.0, 0.0, 1.7976931348623157e+308, 0.0, 0.0, 0.0, 0.05)",0.0,0.0,-0.0157079632679,"(1.7976931348623157e+308, 0.0, 0.0, 0.0, 1.7976931348623157e+308, 0.0, 0.0, 0.0, 0.05)",0.0,0.0,0.0,"(0.0, 0.0, 0.0, 0.0, 0.0, 0.0, 0.0, 0.0, 0.0)"
2019/10/07/19:21:13.448967,7813,1570443673,448416051,gyro_link,0.0,0.0,0.486945269945,0.873432483984,"(1.7976931348623157e+308, 0.0, 0.0, 0.0, 1.7976931348623157e+308, 0.0, 0.0, 0.0, 0.05)",0.0,0.0,-0.0144862327916,"(1.7976931348623157e+308, 0.0, 0.0, 0.0, 1.7976931348623157e+308, 0.0, 0.0, 0.0, 0.05)",0.0,0.0,0.0,"(0.0, 0.0, 0.0, 0.0, 0.0, 0.0, 0.0, 0.0, 0.0)"
2019/10/07/19:21:13.508749,7814,1570443673,508215906,gyro_link,0.0,0.0,0.486945269945,0.873432483984,"(1.7976931348623157e+308, 0.0, 0.0, 0.0, 1.7976931348623157e+308, 0.0, 0.0, 0.0, 0.05)",0.0,0.0,0.0216420827247,"(1.7976931348623157e+308, 0.0, 0.0, 0.0, 1.7976931348623157e+308, 0.0, 0.0, 0.0, 0.05)",0.0,0.0,0.0,"(0.0, 0.0, 0.0, 0.0, 0.0, 0.0, 0.0, 0.0, 0.0)"
2019/10/07/19:21:13.566747,7815,1570443673,566208847,gyro_link,0.0,0.0,0.487478728601,0.873134863101,"(1.7976931348623157e+308, 0.0, 0.0, 0.0, 1.7976931348623157e+308, 0.0, 0.0, 0.0, 0.05)",0.0,0.0,0.00767944870878,"(1.7976931348623157e+308, 0.0, 0.0, 0.0, 1.7976931348623157e+308, 0.0, 0.0, 0.0, 0.05)",0.0,0.0,0.0,"(0.0, 0.0, 0.0, 0.0, 0.0, 0.0, 0.0, 0.0, 0.0)"
2019/10/07/19:21:13.588309,7816,1570443673,587950049,gyro_link,0.0,0.0,0.487478728601,0.873134863101,"(1.7976931348623157e+308, 0.0, 0.0, 0.0, 1.7976931348623157e+308, 0.0, 0.0, 0.0, 0.05)",0.0,0.0,0.00366519142919,"(1.7976931348623157e+308, 0.0, 0.0, 0.0, 1.7976931348623157e+308, 0.0, 0.0, 0.0, 0.05)",0.0,0.0,0.0,"(0.0, 0.0, 0.0, 0.0, 0.0, 0.0, 0.0, 0.0, 0.0)"
2019/10/07/19:21:13.648324,7817,1570443673,647948278,gyro_link,0.0,0.0,0.487554922136,0.873092319232,"(1.7976931348623157e+308, 0.0, 0.0, 0.0, 1.7976931348623157e+308, 0.0, 0.0, 0.0, 0.05)",0.0,0.0,0.000698131700798,"(1.7976931348623157e+308, 0.0, 0.0, 0.0, 1.7976931348623157e+308, 0.0, 0.0, 0.0, 0.05)",0.0,0.0,0.0,"(0.0, 0.0, 0.0, 0.0, 0.0, 0.0, 0.0, 0.0, 0.0)"
2019/10/07/19:21:13.708795,7818,1570443673,707998662,gyro_link,0.0,0.0,0.487097705254,0.873347482699,"(1.7976931348623157e+308, 0.0, 0.0, 0.0, 1.7976931348623157e+308, 0.0, 0.0, 0.0, 0.05)",0.0,0.0,-0.0174532925199,"(1.7976931348623157e+308, 0.0, 0.0, 0.0, 1.7976931348623157e+308, 0.0, 0.0, 0.0, 0.05)",0.0,0.0,0.0,"(0.0, 0.0, 0.0, 0.0, 0.0, 0.0, 0.0, 0.0, 0.0)"
2019/10/07/19:21:13.768226,7819,1570443673,767661233,gyro_link,0.0,0.0,0.486716589171,0.873559936024,"(1.7976931348623157e+308, 0.0, 0.0, 0.0, 1.7976931348623157e+308, 0.0, 0.0, 0.0, 0.05)",0.0,0.0,-0.00593411945678,"(1.7976931348623157e+308, 0.0, 0.0, 0.0, 1.7976931348623157e+308, 0.0, 0.0, 0.0, 0.05)",0.0,0.0,0.0,"(0.0, 0.0, 0.0, 0.0, 0.0, 0.0, 0.0, 0.0, 0.0)"
2019/10/07/19:21:13.828265,7820,1570443673,827527384,gyro_link,0.0,0.0,0.487173917345,0.87330497208,"(1.7976931348623157e+308, 0.0, 0.0, 0.0, 1.7976931348623157e+308, 0.0, 0.0, 0.0, 0.05)",0.0,0.0,0.0219911485751,"(1.7976931348623157e+308, 0.0, 0.0, 0.0, 1.7976931348623157e+308, 0.0, 0.0, 0.0, 0.05)",0.0,0.0,0.0,"(0.0, 0.0, 0.0, 0.0, 0.0, 0.0, 0.0, 0.0, 0.0)"
2019/10/07/19:21:13.887709,7821,1570443673,887267023,gyro_link,0.0,0.0,0.487478728601,0.873134863101,"(1.7976931348623157e+308, 0.0, 0.0, 0.0, 1.7976931348623157e+308, 0.0, 0.0, 0.0, 0.05)",0.0,0.0,-0.00261799387799,"(1.7976931348623157e+308, 0.0, 0.0, 0.0, 1.7976931348623157e+308, 0.0, 0.0, 0.0, 0.05)",0.0,0.0,0.0,"(0.0, 0.0, 0.0, 0.0, 0.0, 0.0, 0.0, 0.0, 0.0)"
2019/10/07/19:21:13.947873,7822,1570443673,947251101,gyro_link,0.0,0.0,0.487250125725,0.87326245481,"(1.7976931348623157e+308, 0.0, 0.0, 0.0, 1.7976931348623157e+308, 0.0, 0.0, 0.0, 0.05)",0.0,0.0,-0.0144862327916,"(1.7976931348623157e+308, 0.0, 0.0, 0.0, 1.7976931348623157e+308, 0.0, 0.0, 0.0, 0.05)",0.0,0.0,0.0,"(0.0, 0.0, 0.0, 0.0, 0.0, 0.0, 0.0, 0.0, 0.0)"
2019/10/07/19:21:14.007587,7823,1570443674,7153473,gyro_link,0.0,0.0,0.486716589171,0.873559936024,"(1.7976931348623157e+308, 0.0, 0.0, 0.0, 1.7976931348623157e+308, 0.0, 0.0, 0.0, 0.05)",0.0,0.0,-0.0165806278939,"(1.7976931348623157e+308, 0.0, 0.0, 0.0, 1.7976931348623157e+308, 0.0, 0.0, 0.0, 0.05)",0.0,0.0,0.0,"(0.0, 0.0, 0.0, 0.0, 0.0, 0.0, 0.0, 0.0, 0.0)"
2019/10/07/19:21:14.067593,7824,1570443674,67146334,gyro_link,0.0,0.0,0.486716589171,0.873559936024,"(1.7976931348623157e+308, 0.0, 0.0, 0.0, 1.7976931348623157e+308, 0.0, 0.0, 0.0, 0.05)",0.0,0.0,0.0150098315672,"(1.7976931348623157e+308, 0.0, 0.0, 0.0, 1.7976931348623157e+308, 0.0, 0.0, 0.0, 0.05)",0.0,0.0,0.0,"(0.0, 0.0, 0.0, 0.0, 0.0, 0.0, 0.0, 0.0, 0.0)"
2019/10/07/19:21:14.126289,7825,1570443674,125907041,gyro_link,0.0,0.0,0.487173917345,0.87330497208,"(1.7976931348623157e+308, 0.0, 0.0, 0.0, 1.7976931348623157e+308, 0.0, 0.0, 0.0, 0.05)",0.0,0.0,0.0167551608191,"(1.7976931348623157e+308, 0.0, 0.0, 0.0, 1.7976931348623157e+308, 0.0, 0.0, 0.0, 0.05)",0.0,0.0,0.0,"(0.0, 0.0, 0.0, 0.0, 0.0, 0.0, 0.0, 0.0, 0.0)"
2019/10/07/19:21:14.147344,7826,1570443674,146957096,gyro_link,0.0,0.0,0.487250125725,0.87326245481,"(1.7976931348623157e+308, 0.0, 0.0, 0.0, 1.7976931348623157e+308, 0.0, 0.0, 0.0, 0.05)",0.0,0.0,-0.00296705972839,"(1.7976931348623157e+308, 0.0, 0.0, 0.0, 1.7976931348623157e+308, 0.0, 0.0, 0.0, 0.05)",0.0,0.0,0.0,"(0.0, 0.0, 0.0, 0.0, 0.0, 0.0, 0.0, 0.0, 0.0)"
2019/10/07/19:21:14.206299,7827,1570443674,205812324,gyro_link,0.0,0.0,0.486945269945,0.873432483984,"(1.7976931348623157e+308, 0.0, 0.0, 0.0, 1.7976931348623157e+308, 0.0, 0.0, 0.0, 0.05)",0.0,0.0,-0.0171042266695,"(1.7976931348623157e+308, 0.0, 0.0, 0.0, 1.7976931348623157e+308, 0.0, 0.0, 0.0, 0.05)",0.0,0.0,0.0,"(0.0, 0.0, 0.0, 0.0, 0.0, 0.0, 0.0, 0.0, 0.0)"
2019/10/07/19:21:14.263945,7828,1570443674,263534356,gyro_link,0.0,0.0,0.486411629583,0.87372977894,"(1.7976931348623157e+308, 0.0, 0.0, 0.0, 1.7976931348623157e+308, 0.0, 0.0, 0.0, 0.05)",0.0,0.0,-0.0202458193231,"(1.7976931348623157e+308, 0.0, 0.0, 0.0, 1.7976931348623157e+308, 0.0, 0.0, 0.0, 0.05)",0.0,0.0,0.0,"(0.0, 0.0, 0.0, 0.0, 0.0, 0.0, 0.0, 0.0, 0.0)"
2019/10/07/19:21:14.287296,7829,1570443674,286794744,gyro_link,0.0,0.0,0.486259127561,0.873814660477,"(1.7976931348623157e+308, 0.0, 0.0, 0.0, 1.7976931348623157e+308, 0.0, 0.0, 0.0, 0.05)",0.0,0.0,-0.00994837673637,"(1.7976931348623157e+308, 0.0, 0.0, 0.0, 1.7976931348623157e+308, 0.0, 0.0, 0.0, 0.05)",0.0,0.0,0.0,"(0.0, 0.0, 0.0, 0.0, 0.0, 0.0, 0.0, 0.0, 0.0)"
2019/10/07/19:21:14.346020,7830,1570443674,345643300,gyro_link,0.0,0.0,0.486564116787,0.873644870788,"(1.7976931348623157e+308, 0.0, 0.0, 0.0, 1.7976931348623157e+308, 0.0, 0.0, 0.0, 0.05)",0.0,0.0,0.0171042266695,"(1.7976931348623157e+308, 0.0, 0.0, 0.0, 1.7976931348623157e+308, 0.0, 0.0, 0.0, 0.05)",0.0,0.0,0.0,"(0.0, 0.0, 0.0, 0.0, 0.0, 0.0, 0.0, 0.0, 0.0)"
2019/10/07/19:21:14.403475,7831,1570443674,403127011,gyro_link,0.0,0.0,0.487097705254,0.873347482699,"(1.7976931348623157e+308, 0.0, 0.0, 0.0, 1.7976931348623157e+308, 0.0, 0.0, 0.0, 0.05)",0.0,0.0,0.00925024503557,"(1.7976931348623157e+308, 0.0, 0.0, 0.0, 1.7976931348623157e+308, 0.0, 0.0, 0.0, 0.05)",0.0,0.0,0.0,"(0.0, 0.0, 0.0, 0.0, 0.0, 0.0, 0.0, 0.0, 0.0)"
2019/10/07/19:21:14.425897,7832,1570443674,425485636,gyro_link,0.0,0.0,0.487097705254,0.873347482699,"(1.7976931348623157e+308, 0.0, 0.0, 0.0, 1.7976931348623157e+308, 0.0, 0.0, 0.0, 0.05)",0.0,0.0,0.0010471975512,"(1.7976931348623157e+308, 0.0, 0.0, 0.0, 1.7976931348623157e+308, 0.0, 0.0, 0.0, 0.05)",0.0,0.0,0.0,"(0.0, 0.0, 0.0, 0.0, 0.0, 0.0, 0.0, 0.0, 0.0)"
2019/10/07/19:21:14.485991,7833,1570443674,485386791,gyro_link,0.0,0.0,0.486945269945,0.873432483984,"(1.7976931348623157e+308, 0.0, 0.0, 0.0, 1.7976931348623157e+308, 0.0, 0.0, 0.0, 0.05)",0.0,0.0,-0.00663225115758,"(1.7976931348623157e+308, 0.0, 0.0, 0.0, 1.7976931348623157e+308, 0.0, 0.0, 0.0, 0.05)",0.0,0.0,0.0,"(0.0, 0.0, 0.0, 0.0, 0.0, 0.0, 0.0, 0.0, 0.0)"
2019/10/07/19:21:14.543708,7834,1570443674,543320718,gyro_link,0.0,0.0,0.486487875037,0.873687328191,"(1.7976931348623157e+308, 0.0, 0.0, 0.0, 1.7976931348623157e+308, 0.0, 0.0, 0.0, 0.05)",0.0,0.0,-0.0205948851735,"(1.7976931348623157e+308, 0.0, 0.0, 0.0, 1.7976931348623157e+308, 0.0, 0.0, 0.0, 0.05)",0.0,0.0,0.0,"(0.0, 0.0, 0.0, 0.0, 0.0, 0.0, 0.0, 0.0, 0.0)"
2019/10/07/19:21:14.565496,7835,1570443674,565219919,gyro_link,0.0,0.0,0.486411629583,0.87372977894,"(1.7976931348623157e+308, 0.0, 0.0, 0.0, 1.7976931348623157e+308, 0.0, 0.0, 0.0, 0.05)",0.0,0.0,-0.00802851455917,"(1.7976931348623157e+308, 0.0, 0.0, 0.0, 1.7976931348623157e+308, 0.0, 0.0, 0.0, 0.05)",0.0,0.0,0.0,"(0.0, 0.0, 0.0, 0.0, 0.0, 0.0, 0.0, 0.0, 0.0)"
2019/10/07/19:21:14.625523,7836,1570443674,625098745,gyro_link,0.0,0.0,0.486792819803,0.873517458663,"(1.7976931348623157e+308, 0.0, 0.0, 0.0, 1.7976931348623157e+308, 0.0, 0.0, 0.0, 0.05)",0.0,0.0,0.0216420827247,"(1.7976931348623157e+308, 0.0, 0.0, 0.0, 1.7976931348623157e+308, 0.0, 0.0, 0.0, 0.05)",0.0,0.0,0.0,"(0.0, 0.0, 0.0, 0.0, 0.0, 0.0, 0.0, 0.0, 0.0)"
2019/10/07/19:21:14.685395,7837,1570443674,685093802,gyro_link,0.0,0.0,0.487021489454,0.873389986667,"(1.7976931348623157e+308, 0.0, 0.0, 0.0, 1.7976931348623157e+308, 0.0, 0.0, 0.0, 0.05)",0.0,0.0,-0.00925024503557,"(1.7976931348623157e+308, 0.0, 0.0, 0.0, 1.7976931348623157e+308, 0.0, 0.0, 0.0, 0.05)",0.0,0.0,0.0,"(0.0, 0.0, 0.0, 0.0, 0.0, 0.0, 0.0, 0.0, 0.0)"
2019/10/07/19:21:14.745309,7838,1570443674,744778758,gyro_link,0.0,0.0,0.486487875037,0.873687328191,"(1.7976931348623157e+308, 0.0, 0.0, 0.0, 1.7976931348623157e+308, 0.0, 0.0, 0.0, 0.05)",0.0,0.0,-0.0232128790515,"(1.7976931348623157e+308, 0.0, 0.0, 0.0, 1.7976931348623157e+308, 0.0, 0.0, 0.0, 0.05)",0.0,0.0,0.0,"(0.0, 0.0, 0.0, 0.0, 0.0, 0.0, 0.0, 0.0, 0.0)"
2019/10/07/19:21:14.805484,7839,1570443674,804937537,gyro_link,0.0,0.0,0.485954079085,0.873984343693,"(1.7976931348623157e+308, 0.0, 0.0, 0.0, 1.7976931348623157e+308, 0.0, 0.0, 0.0, 0.05)",0.0,0.0,-0.0150098315672,"(1.7976931348623157e+308, 0.0, 0.0, 0.0, 1.7976931348623157e+308, 0.0, 0.0, 0.0, 0.05)",0.0,0.0,0.0,"(0.0, 0.0, 0.0, 0.0, 0.0, 0.0, 0.0, 0.0, 0.0)"
2019/10/07/19:21:14.863101,7840,1570443674,862602474,gyro_link,0.0,0.0,0.486106610727,0.873899515395,"(1.7976931348623157e+308, 0.0, 0.0, 0.0, 1.7976931348623157e+308, 0.0, 0.0, 0.0, 0.05)",0.0,0.0,0.0176278254451,"(1.7976931348623157e+308, 0.0, 0.0, 0.0, 1.7976931348623157e+308, 0.0, 0.0, 0.0, 0.05)",0.0,0.0,0.0,"(0.0, 0.0, 0.0, 0.0, 0.0, 0.0, 0.0, 0.0, 0.0)"
2019/10/07/19:21:14.884809,7841,1570443674,884489686,gyro_link,0.0,0.0,0.486335380423,0.873772223035,"(1.7976931348623157e+308, 0.0, 0.0, 0.0, 1.7976931348623157e+308, 0.0, 0.0, 0.0, 0.05)",0.0,0.0,0.0209439510239,"(1.7976931348623157e+308, 0.0, 0.0, 0.0, 1.7976931348623157e+308, 0.0, 0.0, 0.0, 0.05)",0.0,0.0,0.0,"(0.0, 0.0, 0.0, 0.0, 0.0, 0.0, 0.0, 0.0, 0.0)"
2019/10/07/19:21:14.945089,7842,1570443674,944331930,gyro_link,0.0,0.0,0.486487875037,0.873687328191,"(1.7976931348623157e+308, 0.0, 0.0, 0.0, 1.7976931348623157e+308, 0.0, 0.0, 0.0, 0.05)",0.0,0.0,0.0,"(1.7976931348623157e+308, 0.0, 0.0, 0.0, 1.7976931348623157e+308, 0.0, 0.0, 0.0, 0.05)",0.0,0.0,0.0,"(0.0, 0.0, 0.0, 0.0, 0.0, 0.0, 0.0, 0.0, 0.0)"
2019/10/07/19:21:15.004443,7843,1570443675,4144682,gyro_link,0.0,0.0,0.486335380423,0.873772223035,"(1.7976931348623157e+308, 0.0, 0.0, 0.0, 1.7976931348623157e+308, 0.0, 0.0, 0.0, 0.05)",0.0,0.0,-0.0158824961931,"(1.7976931348623157e+308, 0.0, 0.0, 0.0, 1.7976931348623157e+308, 0.0, 0.0, 0.0, 0.05)",0.0,0.0,0.0,"(0.0, 0.0, 0.0, 0.0, 0.0, 0.0, 0.0, 0.0, 0.0)"
2019/10/07/19:21:15.064625,7844,1570443675,64094096,gyro_link,0.0,0.0,0.486030346756,0.873941932872,"(1.7976931348623157e+308, 0.0, 0.0, 0.0, 1.7976931348623157e+308, 0.0, 0.0, 0.0, 0.05)",0.0,0.0,-0.00872664625997,"(1.7976931348623157e+308, 0.0, 0.0, 0.0, 1.7976931348623157e+308, 0.0, 0.0, 0.0, 0.05)",0.0,0.0,0.0,"(0.0, 0.0, 0.0, 0.0, 0.0, 0.0, 0.0, 0.0, 0.0)"
2019/10/07/19:21:15.124721,7845,1570443675,124276677,gyro_link,0.0,0.0,0.486182870995,0.873857091263,"(1.7976931348623157e+308, 0.0, 0.0, 0.0, 1.7976931348623157e+308, 0.0, 0.0, 0.0, 0.05)",0.0,0.0,0.0179768912955,"(1.7976931348623157e+308, 0.0, 0.0, 0.0, 1.7976931348623157e+308, 0.0, 0.0, 0.0, 0.05)",0.0,0.0,0.0,"(0.0, 0.0, 0.0, 0.0, 0.0, 0.0, 0.0, 0.0, 0.0)"
2019/10/07/19:21:15.183516,7846,1570443675,183129734,gyro_link,0.0,0.0,0.486487875037,0.873687328191,"(1.7976931348623157e+308, 0.0, 0.0, 0.0, 1.7976931348623157e+308, 0.0, 0.0, 0.0, 0.05)",0.0,0.0,0.00663225115758,"(1.7976931348623157e+308, 0.0, 0.0, 0.0, 1.7976931348623157e+308, 0.0, 0.0, 0.0, 0.05)",0.0,0.0,0.0,"(0.0, 0.0, 0.0, 0.0, 0.0, 0.0, 0.0, 0.0, 0.0)"
2019/10/07/19:21:15.204472,7847,1570443675,204209697,gyro_link,0.0,0.0,0.486487875037,0.873687328191,"(1.7976931348623157e+308, 0.0, 0.0, 0.0, 1.7976931348623157e+308, 0.0, 0.0, 0.0, 0.05)",0.0,0.0,-0.00418879020479,"(1.7976931348623157e+308, 0.0, 0.0, 0.0, 1.7976931348623157e+308, 0.0, 0.0, 0.0, 0.05)",0.0,0.0,0.0,"(0.0, 0.0, 0.0, 0.0, 0.0, 0.0, 0.0, 0.0, 0.0)"
2019/10/07/19:21:15.263385,7848,1570443675,263041848,gyro_link,0.0,0.0,0.486182870995,0.873857091263,"(1.7976931348623157e+308, 0.0, 0.0, 0.0, 1.7976931348623157e+308, 0.0, 0.0, 0.0, 0.05)",0.0,0.0,-0.01308996939,"(1.7976931348623157e+308, 0.0, 0.0, 0.0, 1.7976931348623157e+308, 0.0, 0.0, 0.0, 0.05)",0.0,0.0,0.0,"(0.0, 0.0, 0.0, 0.0, 0.0, 0.0, 0.0, 0.0, 0.0)"
2019/10/07/19:21:15.320905,7849,1570443675,320525622,gyro_link,0.0,0.0,0.485725253868,0.874111536221,"(1.7976931348623157e+308, 0.0, 0.0, 0.0, 1.7976931348623157e+308, 0.0, 0.0, 0.0, 0.05)",0.0,0.0,-0.00558505360638,"(1.7976931348623157e+308, 0.0, 0.0, 0.0, 1.7976931348623157e+308, 0.0, 0.0, 0.0, 0.05)",0.0,0.0,0.0,"(0.0, 0.0, 0.0, 0.0, 0.0, 0.0, 0.0, 0.0, 0.0)"
2019/10/07/19:21:15.344127,7850,1570443675,343780758,gyro_link,0.0,0.0,0.485725253868,0.874111536221,"(1.7976931348623157e+308, 0.0, 0.0, 0.0, 1.7976931348623157e+308, 0.0, 0.0, 0.0, 0.05)",0.0,0.0,-0.00331612557879,"(1.7976931348623157e+308, 0.0, 0.0, 0.0, 1.7976931348623157e+308, 0.0, 0.0, 0.0, 0.05)",0.0,0.0,0.0,"(0.0, 0.0, 0.0, 0.0, 0.0, 0.0, 0.0, 0.0, 0.0)"
2019/10/07/19:21:15.403325,7851,1570443675,402870986,gyro_link,0.0,0.0,0.485954079085,0.873984343693,"(1.7976931348623157e+308, 0.0, 0.0, 0.0, 1.7976931348623157e+308, 0.0, 0.0, 0.0, 0.05)",0.0,0.0,0.0193731546971,"(1.7976931348623157e+308, 0.0, 0.0, 0.0, 1.7976931348623157e+308, 0.0, 0.0, 0.0, 0.05)",0.0,0.0,0.0,"(0.0, 0.0, 0.0, 0.0, 0.0, 0.0, 0.0, 0.0, 0.0)"
2019/10/07/19:21:15.461270,7852,1570443675,460826881,gyro_link,0.0,0.0,0.486182870995,0.873857091263,"(1.7976931348623157e+308, 0.0, 0.0, 0.0, 1.7976931348623157e+308, 0.0, 0.0, 0.0, 0.05)",0.0,0.0,-0.00872664625997,"(1.7976931348623157e+308, 0.0, 0.0, 0.0, 1.7976931348623157e+308, 0.0, 0.0, 0.0, 0.05)",0.0,0.0,0.0,"(0.0, 0.0, 0.0, 0.0, 0.0, 0.0, 0.0, 0.0, 0.0)"
2019/10/07/19:21:15.483046,7853,1570443675,482742702,gyro_link,0.0,0.0,0.486030346756,0.873941932872,"(1.7976931348623157e+308, 0.0, 0.0, 0.0, 1.7976931348623157e+308, 0.0, 0.0, 0.0, 0.05)",0.0,0.0,-0.0144862327916,"(1.7976931348623157e+308, 0.0, 0.0, 0.0, 1.7976931348623157e+308, 0.0, 0.0, 0.0, 0.05)",0.0,0.0,0.0,"(0.0, 0.0, 0.0, 0.0, 0.0, 0.0, 0.0, 0.0, 0.0)"
2019/10/07/19:21:15.540999,7854,1570443675,540517782,gyro_link,0.0,0.0,0.485648971397,0.874153920417,"(1.7976931348623157e+308, 0.0, 0.0, 0.0, 1.7976931348623157e+308, 0.0, 0.0, 0.0, 0.05)",0.0,0.0,-0.0197222205475,"(1.7976931348623157e+308, 0.0, 0.0, 0.0, 1.7976931348623157e+308, 0.0, 0.0, 0.0, 0.05)",0.0,0.0,0.0,"(0.0, 0.0, 0.0, 0.0, 0.0, 0.0, 0.0, 0.0, 0.0)"
2019/10/07/19:21:15.563101,7855,1570443675,562624844,gyro_link,0.0,0.0,0.485420101795,0.874281033063,"(1.7976931348623157e+308, 0.0, 0.0, 0.0, 1.7976931348623157e+308, 0.0, 0.0, 0.0, 0.05)",0.0,0.0,-0.00959931088597,"(1.7976931348623157e+308, 0.0, 0.0, 0.0, 1.7976931348623157e+308, 0.0, 0.0, 0.0, 0.05)",0.0,0.0,0.0,"(0.0, 0.0, 0.0, 0.0, 0.0, 0.0, 0.0, 0.0, 0.0)"
2019/10/07/19:21:15.620729,7856,1570443675,620293784,gyro_link,0.0,0.0,0.485725253868,0.874111536221,"(1.7976931348623157e+308, 0.0, 0.0, 0.0, 1.7976931348623157e+308, 0.0, 0.0, 0.0, 0.05)",0.0,0.0,0.0188495559215,"(1.7976931348623157e+308, 0.0, 0.0, 0.0, 1.7976931348623157e+308, 0.0, 0.0, 0.0, 0.05)",0.0,0.0,0.0,"(0.0, 0.0, 0.0, 0.0, 0.0, 0.0, 0.0, 0.0, 0.0)"
2019/10/07/19:21:15.642578,7857,1570443675,642185580,gyro_link,0.0,0.0,0.485877807712,0.874026747859,"(1.7976931348623157e+308, 0.0, 0.0, 0.0, 1.7976931348623157e+308, 0.0, 0.0, 0.0, 0.05)",0.0,0.0,0.0207694180987,"(1.7976931348623157e+308, 0.0, 0.0, 0.0, 1.7976931348623157e+308, 0.0, 0.0, 0.0, 0.05)",0.0,0.0,0.0,"(0.0, 0.0, 0.0, 0.0, 0.0, 0.0, 0.0, 0.0, 0.0)"
2019/10/07/19:21:15.700455,7858,1570443675,699977682,gyro_link,0.0,0.0,0.486030346756,0.873941932872,"(1.7976931348623157e+308, 0.0, 0.0, 0.0, 1.7976931348623157e+308, 0.0, 0.0, 0.0, 0.05)",0.0,0.0,-0.013962634016,"(1.7976931348623157e+308, 0.0, 0.0, 0.0, 1.7976931348623157e+308, 0.0, 0.0, 0.0, 0.05)",0.0,0.0,0.0,"(0.0, 0.0, 0.0, 0.0, 0.0, 0.0, 0.0, 0.0, 0.0)"
2019/10/07/19:21:15.722537,7859,1570443675,722042454,gyro_link,0.0,0.0,0.485954079085,0.873984343693,"(1.7976931348623157e+308, 0.0, 0.0, 0.0, 1.7976931348623157e+308, 0.0, 0.0, 0.0, 0.05)",0.0,0.0,-0.0164060949687,"(1.7976931348623157e+308, 0.0, 0.0, 0.0, 1.7976931348623157e+308, 0.0, 0.0, 0.0, 0.05)",0.0,0.0,0.0,"(0.0, 0.0, 0.0, 0.0, 0.0, 0.0, 0.0, 0.0, 0.0)"
2019/10/07/19:21:15.782622,7860,1570443675,782006386,gyro_link,0.0,0.0,0.485648971397,0.874153920417,"(1.7976931348623157e+308, 0.0, 0.0, 0.0, 1.7976931348623157e+308, 0.0, 0.0, 0.0, 0.05)",0.0,0.0,-0.0150098315672,"(1.7976931348623157e+308, 0.0, 0.0, 0.0, 1.7976931348623157e+308, 0.0, 0.0, 0.0, 0.05)",0.0,0.0,0.0,"(0.0, 0.0, 0.0, 0.0, 0.0, 0.0, 0.0, 0.0, 0.0)"
2019/10/07/19:21:15.839830,7861,1570443675,839577407,gyro_link,0.0,0.0,0.485420101795,0.874281033063,"(1.7976931348623157e+308, 0.0, 0.0, 0.0, 1.7976931348623157e+308, 0.0, 0.0, 0.0, 0.05)",0.0,0.0,-0.000174532925199,"(1.7976931348623157e+308, 0.0, 0.0, 0.0, 1.7976931348623157e+308, 0.0, 0.0, 0.0, 0.05)",0.0,0.0,0.0,"(0.0, 0.0, 0.0, 0.0, 0.0, 0.0, 0.0, 0.0, 0.0)"
2019/10/07/19:21:15.862305,7862,1570443675,861925973,gyro_link,0.0,0.0,0.48549639536,0.874238668839,"(1.7976931348623157e+308, 0.0, 0.0, 0.0, 1.7976931348623157e+308, 0.0, 0.0, 0.0, 0.05)",0.0,0.0,0.013962634016,"(1.7976931348623157e+308, 0.0, 0.0, 0.0, 1.7976931348623157e+308, 0.0, 0.0, 0.0, 0.05)",0.0,0.0,0.0,"(0.0, 0.0, 0.0, 0.0, 0.0, 0.0, 0.0, 0.0, 0.0)"
2019/10/07/19:21:15.922303,7863,1570443675,921586760,gyro_link,0.0,0.0,0.485954079085,0.873984343693,"(1.7976931348623157e+308, 0.0, 0.0, 0.0, 1.7976931348623157e+308, 0.0, 0.0, 0.0, 0.05)",0.0,0.0,0.011344640138,"(1.7976931348623157e+308, 0.0, 0.0, 0.0, 1.7976931348623157e+308, 0.0, 0.0, 0.0, 0.05)",0.0,0.0,0.0,"(0.0, 0.0, 0.0, 0.0, 0.0, 0.0, 0.0, 0.0, 0.0)"
2019/10/07/19:21:15.982201,7864,1570443675,981531980,gyro_link,0.0,0.0,0.485725253868,0.874111536221,"(1.7976931348623157e+308, 0.0, 0.0, 0.0, 1.7976931348623157e+308, 0.0, 0.0, 0.0, 0.05)",0.0,0.0,-0.0223402144255,"(1.7976931348623157e+308, 0.0, 0.0, 0.0, 1.7976931348623157e+308, 0.0, 0.0, 0.0, 0.05)",0.0,0.0,0.0,"(0.0, 0.0, 0.0, 0.0, 0.0, 0.0, 0.0, 0.0, 0.0)"
2019/10/07/19:21:16.039721,7865,1570443676,39321288,gyro_link,0.0,0.0,0.485267503577,0.874365741536,"(1.7976931348623157e+308, 0.0, 0.0, 0.0, 1.7976931348623157e+308, 0.0, 0.0, 0.0, 0.05)",0.0,0.0,-0.00802851455917,"(1.7976931348623157e+308, 0.0, 0.0, 0.0, 1.7976931348623157e+308, 0.0, 0.0, 0.0, 0.05)",0.0,0.0,0.0,"(0.0, 0.0, 0.0, 0.0, 0.0, 0.0, 0.0, 0.0, 0.0)"
2019/10/07/19:21:16.061672,7866,1570443676,61204705,gyro_link,0.0,0.0,0.485191198924,0.874408085786,"(1.7976931348623157e+308, 0.0, 0.0, 0.0, 1.7976931348623157e+308, 0.0, 0.0, 0.0, 0.05)",0.0,0.0,-0.00366519142919,"(1.7976931348623157e+308, 0.0, 0.0, 0.0, 1.7976931348623157e+308, 0.0, 0.0, 0.0, 0.05)",0.0,0.0,0.0,"(0.0, 0.0, 0.0, 0.0, 0.0, 0.0, 0.0, 0.0, 0.0)"
2019/10/07/19:21:16.121821,7867,1570443676,121366345,gyro_link,0.0,0.0,0.485572685227,0.874196297957,"(1.7976931348623157e+308, 0.0, 0.0, 0.0, 1.7976931348623157e+308, 0.0, 0.0, 0.0, 0.05)",0.0,0.0,0.0247836753783,"(1.7976931348623157e+308, 0.0, 0.0, 0.0, 1.7976931348623157e+308, 0.0, 0.0, 0.0, 0.05)",0.0,0.0,0.0,"(0.0, 0.0, 0.0, 0.0, 0.0, 0.0, 0.0, 0.0, 0.0)"
2019/10/07/19:21:16.181606,7868,1570443676,181194340,gyro_link,0.0,0.0,0.48580153264,0.874069145368,"(1.7976931348623157e+308, 0.0, 0.0, 0.0, 1.7976931348623157e+308, 0.0, 0.0, 0.0, 0.05)",0.0,0.0,-0.00401425727959,"(1.7976931348623157e+308, 0.0, 0.0, 0.0, 1.7976931348623157e+308, 0.0, 0.0, 0.0, 0.05)",0.0,0.0,0.0,"(0.0, 0.0, 0.0, 0.0, 0.0, 0.0, 0.0, 0.0, 0.0)"
2019/10/07/19:21:16.202904,7869,1570443676,202122797,gyro_link,0.0,0.0,0.485725253868,0.874111536221,"(1.7976931348623157e+308, 0.0, 0.0, 0.0, 1.7976931348623157e+308, 0.0, 0.0, 0.0, 0.05)",0.0,0.0,-0.0106465084372,"(1.7976931348623157e+308, 0.0, 0.0, 0.0, 1.7976931348623157e+308, 0.0, 0.0, 0.0, 0.05)",0.0,0.0,0.0,"(0.0, 0.0, 0.0, 0.0, 0.0, 0.0, 0.0, 0.0, 0.0)"
2019/10/07/19:21:16.241235,7870,1570443676,240753038,gyro_link,0.0,0.0,0.485420101795,0.874281033063,"(1.7976931348623157e+308, 0.0, 0.0, 0.0, 1.7976931348623157e+308, 0.0, 0.0, 0.0, 0.05)",0.0,0.0,-0.0254818070791,"(1.7976931348623157e+308, 0.0, 0.0, 0.0, 1.7976931348623157e+308, 0.0, 0.0, 0.0, 0.05)",0.0,0.0,0.0,"(0.0, 0.0, 0.0, 0.0, 0.0, 0.0, 0.0, 0.0, 0.0)"
2019/10/07/19:21:16.301199,7871,1570443676,300764569,gyro_link,0.0,0.0,0.484962262797,0.874535078577,"(1.7976931348623157e+308, 0.0, 0.0, 0.0, 1.7976931348623157e+308, 0.0, 0.0, 0.0, 0.05)",0.0,0.0,-0.0108210413624,"(1.7976931348623157e+308, 0.0, 0.0, 0.0, 1.7976931348623157e+308, 0.0, 0.0, 0.0, 0.05)",0.0,0.0,0.0,"(0.0, 0.0, 0.0, 0.0, 0.0, 0.0, 0.0, 0.0, 0.0)"
2019/10/07/19:21:16.360896,7872,1570443676,360514349,gyro_link,0.0,0.0,0.485191198924,0.874408085786,"(1.7976931348623157e+308, 0.0, 0.0, 0.0, 1.7976931348623157e+308, 0.0, 0.0, 0.0, 0.05)",0.0,0.0,0.0204203522483,"(1.7976931348623157e+308, 0.0, 0.0, 0.0, 1.7976931348623157e+308, 0.0, 0.0, 0.0, 0.05)",0.0,0.0,0.0,"(0.0, 0.0, 0.0, 0.0, 0.0, 0.0, 0.0, 0.0, 0.0)"
2019/10/07/19:21:16.421123,7873,1570443676,420626272,gyro_link,0.0,0.0,0.48549639536,0.874238668839,"(1.7976931348623157e+308, 0.0, 0.0, 0.0, 1.7976931348623157e+308, 0.0, 0.0, 0.0, 0.05)",0.0,0.0,0.00209439510239,"(1.7976931348623157e+308, 0.0, 0.0, 0.0, 1.7976931348623157e+308, 0.0, 0.0, 0.0, 0.05)",0.0,0.0,0.0,"(0.0, 0.0, 0.0, 0.0, 0.0, 0.0, 0.0, 0.0, 0.0)"
2019/10/07/19:21:16.479977,7874,1570443676,479309031,gyro_link,0.0,0.0,0.485267503577,0.874365741536,"(1.7976931348623157e+308, 0.0, 0.0, 0.0, 1.7976931348623157e+308, 0.0, 0.0, 0.0, 0.05)",0.0,0.0,-0.0127409035396,"(1.7976931348623157e+308, 0.0, 0.0, 0.0, 1.7976931348623157e+308, 0.0, 0.0, 0.0, 0.05)",0.0,0.0,0.0,"(0.0, 0.0, 0.0, 0.0, 0.0, 0.0, 0.0, 0.0, 0.0)"
2019/10/07/19:21:16.500822,7875,1570443676,500271790,gyro_link,0.0,0.0,0.485038578533,0.874492754306,"(1.7976931348623157e+308, 0.0, 0.0, 0.0, 1.7976931348623157e+308, 0.0, 0.0, 0.0, 0.05)",0.0,0.0,-0.0157079632679,"(1.7976931348623157e+308, 0.0, 0.0, 0.0, 1.7976931348623157e+308, 0.0, 0.0, 0.0, 0.05)",0.0,0.0,0.0,"(0.0, 0.0, 0.0, 0.0, 0.0, 0.0, 0.0, 0.0, 0.0)"
2019/10/07/19:21:16.559830,7876,1570443676,559229916,gyro_link,0.0,0.0,0.484809620246,0.874619707139,"(1.7976931348623157e+308, 0.0, 0.0, 0.0, 1.7976931348623157e+308, 0.0, 0.0, 0.0, 0.05)",0.0,0.0,0.00191986217719,"(1.7976931348623157e+308, 0.0, 0.0, 0.0, 1.7976931348623157e+308, 0.0, 0.0, 0.0, 0.05)",0.0,0.0,0.0,"(0.0, 0.0, 0.0, 0.0, 0.0, 0.0, 0.0, 0.0, 0.0)"
2019/10/07/19:21:16.617695,7877,1570443676,617059240,gyro_link,0.0,0.0,0.485191198924,0.874408085786,"(1.7976931348623157e+308, 0.0, 0.0, 0.0, 1.7976931348623157e+308, 0.0, 0.0, 0.0, 0.05)",0.0,0.0,0.0216420827247,"(1.7976931348623157e+308, 0.0, 0.0, 0.0, 1.7976931348623157e+308, 0.0, 0.0, 0.0, 0.05)",0.0,0.0,0.0,"(0.0, 0.0, 0.0, 0.0, 0.0, 0.0, 0.0, 0.0, 0.0)"
2019/10/07/19:21:16.640556,7878,1570443676,639995524,gyro_link,0.0,0.0,0.485343804534,0.874323390629,"(1.7976931348623157e+308, 0.0, 0.0, 0.0, 1.7976931348623157e+308, 0.0, 0.0, 0.0, 0.05)",0.0,0.0,0.0188495559215,"(1.7976931348623157e+308, 0.0, 0.0, 0.0, 1.7976931348623157e+308, 0.0, 0.0, 0.0, 0.05)",0.0,0.0,0.0,"(0.0, 0.0, 0.0, 0.0, 0.0, 0.0, 0.0, 0.0, 0.0)"
2019/10/07/19:21:16.699725,7879,1570443676,699256550,gyro_link,0.0,0.0,0.485267503577,0.874365741536,"(1.7976931348623157e+308, 0.0, 0.0, 0.0, 1.7976931348623157e+308, 0.0, 0.0, 0.0, 0.05)",0.0,0.0,-0.0155334303427,"(1.7976931348623157e+308, 0.0, 0.0, 0.0, 1.7976931348623157e+308, 0.0, 0.0, 0.0, 0.05)",0.0,0.0,0.0,"(0.0, 0.0, 0.0, 0.0, 0.0, 0.0, 0.0, 0.0, 0.0)"
2019/10/07/19:21:16.757302,7880,1570443676,756747015,gyro_link,0.0,0.0,0.484733293432,0.87466201143,"(1.7976931348623157e+308, 0.0, 0.0, 0.0, 1.7976931348623157e+308, 0.0, 0.0, 0.0, 0.05)",0.0,0.0,-0.0230383461263,"(1.7976931348623157e+308, 0.0, 0.0, 0.0, 1.7976931348623157e+308, 0.0, 0.0, 0.0, 0.05)",0.0,0.0,0.0,"(0.0, 0.0, 0.0, 0.0, 0.0, 0.0, 0.0, 0.0, 0.0)"
2019/10/07/19:21:16.779531,7881,1570443676,778963924,gyro_link,0.0,0.0,0.484580628731,0.874746600027,"(1.7976931348623157e+308, 0.0, 0.0, 0.0, 1.7976931348623157e+308, 0.0, 0.0, 0.0, 0.05)",0.0,0.0,-0.0137881010908,"(1.7976931348623157e+308, 0.0, 0.0, 0.0, 1.7976931348623157e+308, 0.0, 0.0, 0.0, 0.05)",0.0,0.0,0.0,"(0.0, 0.0, 0.0, 0.0, 0.0, 0.0, 0.0, 0.0, 0.0)"
2019/10/07/19:21:16.837062,7882,1570443676,836743834,gyro_link,0.0,0.0,0.484733293432,0.87466201143,"(1.7976931348623157e+308, 0.0, 0.0, 0.0, 1.7976931348623157e+308, 0.0, 0.0, 0.0, 0.05)",0.0,0.0,0.0151843644924,"(1.7976931348623157e+308, 0.0, 0.0, 0.0, 1.7976931348623157e+308, 0.0, 0.0, 0.0, 0.05)",0.0,0.0,0.0,"(0.0, 0.0, 0.0, 0.0, 0.0, 0.0, 0.0, 0.0, 0.0)"
2019/10/07/19:21:16.859186,7883,1570443676,858894099,gyro_link,0.0,0.0,0.484885943368,0.874577396189,"(1.7976931348623157e+308, 0.0, 0.0, 0.0, 1.7976931348623157e+308, 0.0, 0.0, 0.0, 0.05)",0.0,0.0,0.0132645023152,"(1.7976931348623157e+308, 0.0, 0.0, 0.0, 1.7976931348623157e+308, 0.0, 0.0, 0.0, 0.05)",0.0,0.0,0.0,"(0.0, 0.0, 0.0, 0.0, 0.0, 0.0, 0.0, 0.0, 0.0)"
2019/10/07/19:21:16.916727,7884,1570443676,916443067,gyro_link,0.0,0.0,0.484962262797,0.874535078577,"(1.7976931348623157e+308, 0.0, 0.0, 0.0, 1.7976931348623157e+308, 0.0, 0.0, 0.0, 0.05)",0.0,0.0,-0.014835298642,"(1.7976931348623157e+308, 0.0, 0.0, 0.0, 1.7976931348623157e+308, 0.0, 0.0, 0.0, 0.05)",0.0,0.0,0.0,"(0.0, 0.0, 0.0, 0.0, 0.0, 0.0, 0.0, 0.0, 0.0)"
2019/10/07/19:21:16.939070,7885,1570443676,938629627,gyro_link,0.0,0.0,0.484809620246,0.874619707139,"(1.7976931348623157e+308, 0.0, 0.0, 0.0, 1.7976931348623157e+308, 0.0, 0.0, 0.0, 0.05)",0.0,0.0,-0.0207694180987,"(1.7976931348623157e+308, 0.0, 0.0, 0.0, 1.7976931348623157e+308, 0.0, 0.0, 0.0, 0.05)",0.0,0.0,0.0,"(0.0, 0.0, 0.0, 0.0, 0.0, 0.0, 0.0, 0.0, 0.0)"
2019/10/07/19:21:16.996952,7886,1570443676,996266334,gyro_link,0.0,0.0,0.484427949268,0.874831161978,"(1.7976931348623157e+308, 0.0, 0.0, 0.0, 1.7976931348623157e+308, 0.0, 0.0, 0.0, 0.05)",0.0,0.0,-0.00558505360638,"(1.7976931348623157e+308, 0.0, 0.0, 0.0, 1.7976931348623157e+308, 0.0, 0.0, 0.0, 0.05)",0.0,0.0,0.0,"(0.0, 0.0, 0.0, 0.0, 0.0, 0.0, 0.0, 0.0, 0.0)"
2019/10/07/19:21:17.019003,7887,1570443677,18367909,gyro_link,0.0,0.0,0.484351604003,0.87487343296,"(1.7976931348623157e+308, 0.0, 0.0, 0.0, 1.7976931348623157e+308, 0.0, 0.0, 0.0, 0.05)",0.0,0.0,0.0,"(1.7976931348623157e+308, 0.0, 0.0, 0.0, 1.7976931348623157e+308, 0.0, 0.0, 0.0, 0.05)",0.0,0.0,0.0,"(0.0, 0.0, 0.0, 0.0, 0.0, 0.0, 0.0, 0.0, 0.0)"
2019/10/07/19:21:17.078898,7888,1570443677,78338924,gyro_link,0.0,0.0,0.484580628731,0.874746600027,"(1.7976931348623157e+308, 0.0, 0.0, 0.0, 1.7976931348623157e+308, 0.0, 0.0, 0.0, 0.05)",0.0,0.0,0.011344640138,"(1.7976931348623157e+308, 0.0, 0.0, 0.0, 1.7976931348623157e+308, 0.0, 0.0, 0.0, 0.05)",0.0,0.0,0.0,"(0.0, 0.0, 0.0, 0.0, 0.0, 0.0, 0.0, 0.0, 0.0)"
2019/10/07/19:21:17.138603,7889,1570443677,138108959,gyro_link,0.0,0.0,0.484885943368,0.874577396189,"(1.7976931348623157e+308, 0.0, 0.0, 0.0, 1.7976931348623157e+308, 0.0, 0.0, 0.0, 0.05)",0.0,0.0,0.0,"(1.7976931348623157e+308, 0.0, 0.0, 0.0, 1.7976931348623157e+308, 0.0, 0.0, 0.0, 0.05)",0.0,0.0,0.0,"(0.0, 0.0, 0.0, 0.0, 0.0, 0.0, 0.0, 0.0, 0.0)"
2019/10/07/19:21:17.198705,7890,1570443677,197952294,gyro_link,0.0,0.0,0.484656962927,0.874704309059,"(1.7976931348623157e+308, 0.0, 0.0, 0.0, 1.7976931348623157e+308, 0.0, 0.0, 0.0, 0.05)",0.0,0.0,-0.0134390352404,"(1.7976931348623157e+308, 0.0, 0.0, 0.0, 1.7976931348623157e+308, 0.0, 0.0, 0.0, 0.05)",0.0,0.0,0.0,"(0.0, 0.0, 0.0, 0.0, 0.0, 0.0, 0.0, 0.0, 0.0)"
2019/10/07/19:21:17.258319,7891,1570443677,257897738,gyro_link,0.0,0.0,0.484275255049,0.87491569728,"(1.7976931348623157e+308, 0.0, 0.0, 0.0, 1.7976931348623157e+308, 0.0, 0.0, 0.0, 0.05)",0.0,0.0,-0.00593411945678,"(1.7976931348623157e+308, 0.0, 0.0, 0.0, 1.7976931348623157e+308, 0.0, 0.0, 0.0, 0.05)",0.0,0.0,0.0,"(0.0, 0.0, 0.0, 0.0, 0.0, 0.0, 0.0, 0.0, 0.0)"
2019/10/07/19:21:17.318308,7892,1570443677,317732081,gyro_link,0.0,0.0,0.484504290844,0.874788884333,"(1.7976931348623157e+308, 0.0, 0.0, 0.0, 1.7976931348623157e+308, 0.0, 0.0, 0.0, 0.05)",0.0,0.0,0.0150098315672,"(1.7976931348623157e+308, 0.0, 0.0, 0.0, 1.7976931348623157e+308, 0.0, 0.0, 0.0, 0.05)",0.0,0.0,0.0,"(0.0, 0.0, 0.0, 0.0, 0.0, 0.0, 0.0, 0.0, 0.0)"
2019/10/07/19:21:17.378404,7893,1570443677,377584058,gyro_link,0.0,0.0,0.484656962927,0.874704309059,"(1.7976931348623157e+308, 0.0, 0.0, 0.0, 1.7976931348623157e+308, 0.0, 0.0, 0.0, 0.05)",0.0,0.0,-0.00279252680319,"(1.7976931348623157e+308, 0.0, 0.0, 0.0, 1.7976931348623157e+308, 0.0, 0.0, 0.0, 0.05)",0.0,0.0,0.0,"(0.0, 0.0, 0.0, 0.0, 0.0, 0.0, 0.0, 0.0, 0.0)"
2019/10/07/19:21:17.438149,7894,1570443677,437479999,gyro_link,0.0,0.0,0.484351604003,0.87487343296,"(1.7976931348623157e+308, 0.0, 0.0, 0.0, 1.7976931348623157e+308, 0.0, 0.0, 0.0, 0.05)",0.0,0.0,-0.00383972435439,"(1.7976931348623157e+308, 0.0, 0.0, 0.0, 1.7976931348623157e+308, 0.0, 0.0, 0.0, 0.05)",0.0,0.0,0.0,"(0.0, 0.0, 0.0, 0.0, 0.0, 0.0, 0.0, 0.0, 0.0)"
2019/10/07/19:21:17.497975,7895,1570443677,497450599,gyro_link,0.0,0.0,0.484351604003,0.87487343296,"(1.7976931348623157e+308, 0.0, 0.0, 0.0, 1.7976931348623157e+308, 0.0, 0.0, 0.0, 0.05)",0.0,0.0,0.000174532925199,"(1.7976931348623157e+308, 0.0, 0.0, 0.0, 1.7976931348623157e+308, 0.0, 0.0, 0.0, 0.05)",0.0,0.0,0.0,"(0.0, 0.0, 0.0, 0.0, 0.0, 0.0, 0.0, 0.0, 0.0)"
2019/10/07/19:21:17.557807,7896,1570443677,557294274,gyro_link,0.0,0.0,0.484427949268,0.874831161978,"(1.7976931348623157e+308, 0.0, 0.0, 0.0, 1.7976931348623157e+308, 0.0, 0.0, 0.0, 0.05)",0.0,0.0,0.00558505360638,"(1.7976931348623157e+308, 0.0, 0.0, 0.0, 1.7976931348623157e+308, 0.0, 0.0, 0.0, 0.05)",0.0,0.0,0.0,"(0.0, 0.0, 0.0, 0.0, 0.0, 0.0, 0.0, 0.0, 0.0)"
2019/10/07/19:21:17.616940,7897,1570443677,616241128,gyro_link,0.0,0.0,0.484427949268,0.874831161978,"(1.7976931348623157e+308, 0.0, 0.0, 0.0, 1.7976931348623157e+308, 0.0, 0.0, 0.0, 0.05)",0.0,0.0,-0.00628318530718,"(1.7976931348623157e+308, 0.0, 0.0, 0.0, 1.7976931348623157e+308, 0.0, 0.0, 0.0, 0.05)",0.0,0.0,0.0,"(0.0, 0.0, 0.0, 0.0, 0.0, 0.0, 0.0, 0.0, 0.0)"
2019/10/07/19:21:17.717912,7898,1570443677,717196488,gyro_link,0.0,0.0,0.483740709141,0.875211360941,"(1.7976931348623157e+308, 0.0, 0.0, 0.0, 1.7976931348623157e+308, 0.0, 0.0, 0.0, 0.05)",0.0,0.0,-0.0144862327916,"(1.7976931348623157e+308, 0.0, 0.0, 0.0, 1.7976931348623157e+308, 0.0, 0.0, 0.0, 0.05)",0.0,0.0,0.0,"(0.0, 0.0, 0.0, 0.0, 0.0, 0.0, 0.0, 0.0, 0.0)"
2019/10/07/19:21:17.776522,7899,1570443677,776054249,gyro_link,0.0,0.0,0.483893454972,0.87512691893,"(1.7976931348623157e+308, 0.0, 0.0, 0.0, 1.7976931348623157e+308, 0.0, 0.0, 0.0, 0.05)",0.0,0.0,0.0198967534727,"(1.7976931348623157e+308, 0.0, 0.0, 0.0, 1.7976931348623157e+308, 0.0, 0.0, 0.0, 0.05)",0.0,0.0,0.0,"(0.0, 0.0, 0.0, 0.0, 0.0, 0.0, 0.0, 0.0, 0.0)"
2019/10/07/19:21:17.834138,7900,1570443677,833539718,gyro_link,0.0,0.0,0.484275255049,0.87491569728,"(1.7976931348623157e+308, 0.0, 0.0, 0.0, 1.7976931348623157e+308, 0.0, 0.0, 0.0, 0.05)",0.0,0.0,-0.00157079632679,"(1.7976931348623157e+308, 0.0, 0.0, 0.0, 1.7976931348623157e+308, 0.0, 0.0, 0.0, 0.05)",0.0,0.0,0.0,"(0.0, 0.0, 0.0, 0.0, 0.0, 0.0, 0.0, 0.0, 0.0)"
2019/10/07/19:21:17.856264,7901,1570443677,855837074,gyro_link,0.0,0.0,0.484122546078,0.875000205931,"(1.7976931348623157e+308, 0.0, 0.0, 0.0, 1.7976931348623157e+308, 0.0, 0.0, 0.0, 0.05)",0.0,0.0,-0.0167551608191,"(1.7976931348623157e+308, 0.0, 0.0, 0.0, 1.7976931348623157e+308, 0.0, 0.0, 0.0, 0.05)",0.0,0.0,0.0,"(0.0, 0.0, 0.0, 0.0, 0.0, 0.0, 0.0, 0.0, 0.0)"
2019/10/07/19:21:17.913979,7902,1570443677,913631991,gyro_link,0.0,0.0,0.483893454972,0.87512691893,"(1.7976931348623157e+308, 0.0, 0.0, 0.0, 1.7976931348623157e+308, 0.0, 0.0, 0.0, 0.05)",0.0,0.0,-0.00558505360638,"(1.7976931348623157e+308, 0.0, 0.0, 0.0, 1.7976931348623157e+308, 0.0, 0.0, 0.0, 0.05)",0.0,0.0,0.0,"(0.0, 0.0, 0.0, 0.0, 0.0, 0.0, 0.0, 0.0, 0.0)"
2019/10/07/19:21:17.935764,7903,1570443677,935437081,gyro_link,0.0,0.0,0.483817083899,0.875169143268,"(1.7976931348623157e+308, 0.0, 0.0, 0.0, 1.7976931348623157e+308, 0.0, 0.0, 0.0, 0.05)",0.0,0.0,-0.0012217304764,"(1.7976931348623157e+308, 0.0, 0.0, 0.0, 1.7976931348623157e+308, 0.0, 0.0, 0.0, 0.05)",0.0,0.0,0.0,"(0.0, 0.0, 0.0, 0.0, 0.0, 0.0, 0.0, 0.0, 0.0)"
2019/10/07/19:21:17.995796,7904,1570443677,995422482,gyro_link,0.0,0.0,0.48396982236,0.875084687928,"(1.7976931348623157e+308, 0.0, 0.0, 0.0, 1.7976931348623157e+308, 0.0, 0.0, 0.0, 0.05)",0.0,0.0,0.00767944870878,"(1.7976931348623157e+308, 0.0, 0.0, 0.0, 1.7976931348623157e+308, 0.0, 0.0, 0.0, 0.05)",0.0,0.0,0.0,"(0.0, 0.0, 0.0, 0.0, 0.0, 0.0, 0.0, 0.0, 0.0)"
2019/10/07/19:21:18.053723,7905,1570443678,53313586,gyro_link,0.0,0.0,0.48396982236,0.875084687928,"(1.7976931348623157e+308, 0.0, 0.0, 0.0, 1.7976931348623157e+308, 0.0, 0.0, 0.0, 0.05)",0.0,0.0,-0.0102974425868,"(1.7976931348623157e+308, 0.0, 0.0, 0.0, 1.7976931348623157e+308, 0.0, 0.0, 0.0, 0.05)",0.0,0.0,0.0,"(0.0, 0.0, 0.0, 0.0, 0.0, 0.0, 0.0, 0.0, 0.0)"
2019/10/07/19:21:18.075555,7906,1570443678,75188886,gyro_link,0.0,0.0,0.483893454972,0.87512691893,"(1.7976931348623157e+308, 0.0, 0.0, 0.0, 1.7976931348623157e+308, 0.0, 0.0, 0.0, 0.05)",0.0,0.0,-0.0101229096616,"(1.7976931348623157e+308, 0.0, 0.0, 0.0, 1.7976931348623157e+308, 0.0, 0.0, 0.0, 0.05)",0.0,0.0,0.0,"(0.0, 0.0, 0.0, 0.0, 0.0, 0.0, 0.0, 0.0, 0.0)"
2019/10/07/19:21:18.135981,7907,1570443678,135396666,gyro_link,0.0,0.0,0.483817083899,0.875169143268,"(1.7976931348623157e+308, 0.0, 0.0, 0.0, 1.7976931348623157e+308, 0.0, 0.0, 0.0, 0.05)",0.0,0.0,-0.0101229096616,"(1.7976931348623157e+308, 0.0, 0.0, 0.0, 1.7976931348623157e+308, 0.0, 0.0, 0.0, 0.05)",0.0,0.0,0.0,"(0.0, 0.0, 0.0, 0.0, 0.0, 0.0, 0.0, 0.0, 0.0)"
2019/10/07/19:21:18.195723,7908,1570443678,195293506,gyro_link,0.0,0.0,0.483587948575,0.875295776291,"(1.7976931348623157e+308, 0.0, 0.0, 0.0, 1.7976931348623157e+308, 0.0, 0.0, 0.0, 0.05)",0.0,0.0,0.0,"(1.7976931348623157e+308, 0.0, 0.0, 0.0, 1.7976931348623157e+308, 0.0, 0.0, 0.0, 0.05)",0.0,0.0,0.0,"(0.0, 0.0, 0.0, 0.0, 0.0, 0.0, 0.0, 0.0, 0.0)"
2019/10/07/19:21:18.255511,7909,1570443678,255045210,gyro_link,0.0,0.0,0.483740709141,0.875211360941,"(1.7976931348623157e+308, 0.0, 0.0, 0.0, 1.7976931348623157e+308, 0.0, 0.0, 0.0, 0.05)",0.0,0.0,0.0172787595947,"(1.7976931348623157e+308, 0.0, 0.0, 0.0, 1.7976931348623157e+308, 0.0, 0.0, 0.0, 0.05)",0.0,0.0,0.0,"(0.0, 0.0, 0.0, 0.0, 0.0, 0.0, 0.0, 0.0, 0.0)"
2019/10/07/19:21:18.315622,7910,1570443678,315066724,gyro_link,0.0,0.0,0.48396982236,0.875084687928,"(1.7976931348623157e+308, 0.0, 0.0, 0.0, 1.7976931348623157e+308, 0.0, 0.0, 0.0, 0.05)",0.0,0.0,-0.00244346095279,"(1.7976931348623157e+308, 0.0, 0.0, 0.0, 1.7976931348623157e+308, 0.0, 0.0, 0.0, 0.05)",0.0,0.0,0.0,"(0.0, 0.0, 0.0, 0.0, 0.0, 0.0, 0.0, 0.0, 0.0)"
2019/10/07/19:21:18.375407,7911,1570443678,374957775,gyro_link,0.0,0.0,0.483740709141,0.875211360941,"(1.7976931348623157e+308, 0.0, 0.0, 0.0, 1.7976931348623157e+308, 0.0, 0.0, 0.0, 0.05)",0.0,0.0,-0.0158824961931,"(1.7976931348623157e+308, 0.0, 0.0, 0.0, 1.7976931348623157e+308, 0.0, 0.0, 0.0, 0.05)",0.0,0.0,0.0,"(0.0, 0.0, 0.0, 0.0, 0.0, 0.0, 0.0, 0.0, 0.0)"
2019/10/07/19:21:18.435274,7912,1570443678,434868882,gyro_link,0.0,0.0,0.4836643307,0.875253571949,"(1.7976931348623157e+308, 0.0, 0.0, 0.0, 1.7976931348623157e+308, 0.0, 0.0, 0.0, 0.05)",0.0,0.0,0.00767944870878,"(1.7976931348623157e+308, 0.0, 0.0, 0.0, 1.7976931348623157e+308, 0.0, 0.0, 0.0, 0.05)",0.0,0.0,0.0,"(0.0, 0.0, 0.0, 0.0, 0.0, 0.0, 0.0, 0.0, 0.0)"
2019/10/07/19:21:18.495306,7913,1570443678,494695724,gyro_link,0.0,0.0,0.48396982236,0.875084687928,"(1.7976931348623157e+308, 0.0, 0.0, 0.0, 1.7976931348623157e+308, 0.0, 0.0, 0.0, 0.05)",0.0,0.0,0.00174532925199,"(1.7976931348623157e+308, 0.0, 0.0, 0.0, 1.7976931348623157e+308, 0.0, 0.0, 0.0, 0.05)",0.0,0.0,0.0,"(0.0, 0.0, 0.0, 0.0, 0.0, 0.0, 0.0, 0.0, 0.0)"
2019/10/07/19:21:18.555273,7914,1570443678,554826337,gyro_link,0.0,0.0,0.483740709141,0.875211360941,"(1.7976931348623157e+308, 0.0, 0.0, 0.0, 1.7976931348623157e+308, 0.0, 0.0, 0.0, 0.05)",0.0,0.0,-0.0164060949687,"(1.7976931348623157e+308, 0.0, 0.0, 0.0, 1.7976931348623157e+308, 0.0, 0.0, 0.0, 0.05)",0.0,0.0,0.0,"(0.0, 0.0, 0.0, 0.0, 0.0, 0.0, 0.0, 0.0, 0.0)"
2019/10/07/19:21:18.614909,7915,1570443678,614400870,gyro_link,0.0,0.0,0.483358780107,0.875422349323,"(1.7976931348623157e+308, 0.0, 0.0, 0.0, 1.7976931348623157e+308, 0.0, 0.0, 0.0, 0.05)",0.0,0.0,-0.0012217304764,"(1.7976931348623157e+308, 0.0, 0.0, 0.0, 1.7976931348623157e+308, 0.0, 0.0, 0.0, 0.05)",0.0,0.0,0.0,"(0.0, 0.0, 0.0, 0.0, 0.0, 0.0, 0.0, 0.0, 0.0)"
2019/10/07/19:21:18.674910,7916,1570443678,674365099,gyro_link,0.0,0.0,0.483587948575,0.875295776291,"(1.7976931348623157e+308, 0.0, 0.0, 0.0, 1.7976931348623157e+308, 0.0, 0.0, 0.0, 0.05)",0.0,0.0,0.0176278254451,"(1.7976931348623157e+308, 0.0, 0.0, 0.0, 1.7976931348623157e+308, 0.0, 0.0, 0.0, 0.05)",0.0,0.0,0.0,"(0.0, 0.0, 0.0, 0.0, 0.0, 0.0, 0.0, 0.0, 0.0)"
2019/10/07/19:21:18.734495,7917,1570443678,733937579,gyro_link,0.0,0.0,0.483817083899,0.875169143268,"(1.7976931348623157e+308, 0.0, 0.0, 0.0, 1.7976931348623157e+308, 0.0, 0.0, 0.0, 0.05)",0.0,0.0,-0.00733038285838,"(1.7976931348623157e+308, 0.0, 0.0, 0.0, 1.7976931348623157e+308, 0.0, 0.0, 0.0, 0.05)",0.0,0.0,0.0,"(0.0, 0.0, 0.0, 0.0, 0.0, 0.0, 0.0, 0.0, 0.0)"
2019/10/07/19:21:18.793569,7918,1570443678,793139773,gyro_link,0.0,0.0,0.4836643307,0.875253571949,"(1.7976931348623157e+308, 0.0, 0.0, 0.0, 1.7976931348623157e+308, 0.0, 0.0, 0.0, 0.05)",0.0,0.0,-0.0120427718388,"(1.7976931348623157e+308, 0.0, 0.0, 0.0, 1.7976931348623157e+308, 0.0, 0.0, 0.0, 0.05)",0.0,0.0,0.0,"(0.0, 0.0, 0.0, 0.0, 0.0, 0.0, 0.0, 0.0, 0.0)"
2019/10/07/19:21:18.851283,7919,1570443678,850882834,gyro_link,0.0,0.0,0.483511562768,0.875337973968,"(1.7976931348623157e+308, 0.0, 0.0, 0.0, 1.7976931348623157e+308, 0.0, 0.0, 0.0, 0.05)",0.0,0.0,0.00488692190558,"(1.7976931348623157e+308, 0.0, 0.0, 0.0, 1.7976931348623157e+308, 0.0, 0.0, 0.0, 0.05)",0.0,0.0,0.0,"(0.0, 0.0, 0.0, 0.0, 0.0, 0.0, 0.0, 0.0, 0.0)"
2019/10/07/19:21:18.873125,7920,1570443678,872837127,gyro_link,0.0,0.0,0.483587948575,0.875295776291,"(1.7976931348623157e+308, 0.0, 0.0, 0.0, 1.7976931348623157e+308, 0.0, 0.0, 0.0, 0.05)",0.0,0.0,0.00785398163397,"(1.7976931348623157e+308, 0.0, 0.0, 0.0, 1.7976931348623157e+308, 0.0, 0.0, 0.0, 0.05)",0.0,0.0,0.0,"(0.0, 0.0, 0.0, 0.0, 0.0, 0.0, 0.0, 0.0, 0.0)"
2019/10/07/19:21:18.931462,7921,1570443678,930951943,gyro_link,0.0,0.0,0.483893454972,0.87512691893,"(1.7976931348623157e+308, 0.0, 0.0, 0.0, 1.7976931348623157e+308, 0.0, 0.0, 0.0, 0.05)",0.0,0.0,-0.000698131700798,"(1.7976931348623157e+308, 0.0, 0.0, 0.0, 1.7976931348623157e+308, 0.0, 0.0, 0.0, 0.05)",0.0,0.0,0.0,"(0.0, 0.0, 0.0, 0.0, 0.0, 0.0, 0.0, 0.0, 0.0)"
2019/10/07/19:21:18.953186,7922,1570443678,952787900,gyro_link,0.0,0.0,0.483817083899,0.875169143268,"(1.7976931348623157e+308, 0.0, 0.0, 0.0, 1.7976931348623157e+308, 0.0, 0.0, 0.0, 0.05)",0.0,0.0,-0.00523598775598,"(1.7976931348623157e+308, 0.0, 0.0, 0.0, 1.7976931348623157e+308, 0.0, 0.0, 0.0, 0.05)",0.0,0.0,0.0,"(0.0, 0.0, 0.0, 0.0, 0.0, 0.0, 0.0, 0.0, 0.0)"
2019/10/07/19:21:19.011130,7923,1570443679,10710129,gyro_link,0.0,0.0,0.483435173278,0.875380164978,"(1.7976931348623157e+308, 0.0, 0.0, 0.0, 1.7976931348623157e+308, 0.0, 0.0, 0.0, 0.05)",0.0,0.0,-0.0254818070791,"(1.7976931348623157e+308, 0.0, 0.0, 0.0, 1.7976931348623157e+308, 0.0, 0.0, 0.0, 0.05)",0.0,0.0,0.0,"(0.0, 0.0, 0.0, 0.0, 0.0, 0.0, 0.0, 0.0, 0.0)"
2019/10/07/19:21:19.033014,7924,1570443679,32463415,gyro_link,0.0,0.0,0.483282383255,0.875464527,"(1.7976931348623157e+308, 0.0, 0.0, 0.0, 1.7976931348623157e+308, 0.0, 0.0, 0.0, 0.05)",0.0,0.0,-0.0162315620435,"(1.7976931348623157e+308, 0.0, 0.0, 0.0, 1.7976931348623157e+308, 0.0, 0.0, 0.0, 0.05)",0.0,0.0,0.0,"(0.0, 0.0, 0.0, 0.0, 0.0, 0.0, 0.0, 0.0, 0.0)"
2019/10/07/19:21:19.091031,7925,1570443679,90607658,gyro_link,0.0,0.0,0.483511562768,0.875337973968,"(1.7976931348623157e+308, 0.0, 0.0, 0.0, 1.7976931348623157e+308, 0.0, 0.0, 0.0, 0.05)",0.0,0.0,0.0205948851735,"(1.7976931348623157e+308, 0.0, 0.0, 0.0, 1.7976931348623157e+308, 0.0, 0.0, 0.0, 0.05)",0.0,0.0,0.0,"(0.0, 0.0, 0.0, 0.0, 0.0, 0.0, 0.0, 0.0, 0.0)"
2019/10/07/19:21:19.112773,7926,1570443679,112422978,gyro_link,0.0,0.0,0.4836643307,0.875253571949,"(1.7976931348623157e+308, 0.0, 0.0, 0.0, 1.7976931348623157e+308, 0.0, 0.0, 0.0, 0.05)",0.0,0.0,0.0137881010908,"(1.7976931348623157e+308, 0.0, 0.0, 0.0, 1.7976931348623157e+308, 0.0, 0.0, 0.0, 0.05)",0.0,0.0,0.0,"(0.0, 0.0, 0.0, 0.0, 0.0, 0.0, 0.0, 0.0, 0.0)"
2019/10/07/19:21:19.172796,7927,1570443679,172353138,gyro_link,0.0,0.0,0.483817083899,0.875169143268,"(1.7976931348623157e+308, 0.0, 0.0, 0.0, 1.7976931348623157e+308, 0.0, 0.0, 0.0, 0.05)",0.0,0.0,-0.000872664625997,"(1.7976931348623157e+308, 0.0, 0.0, 0.0, 1.7976931348623157e+308, 0.0, 0.0, 0.0, 0.05)",0.0,0.0,0.0,"(0.0, 0.0, 0.0, 0.0, 0.0, 0.0, 0.0, 0.0, 0.0)"
2019/10/07/19:21:19.230768,7928,1570443679,230183866,gyro_link,0.0,0.0,0.483511562768,0.875337973968,"(1.7976931348623157e+308, 0.0, 0.0, 0.0, 1.7976931348623157e+308, 0.0, 0.0, 0.0, 0.05)",0.0,0.0,-0.0146607657168,"(1.7976931348623157e+308, 0.0, 0.0, 0.0, 1.7976931348623157e+308, 0.0, 0.0, 0.0, 0.05)",0.0,0.0,0.0,"(0.0, 0.0, 0.0, 0.0, 0.0, 0.0, 0.0, 0.0, 0.0)"
2019/10/07/19:21:19.252948,7929,1570443679,252328812,gyro_link,0.0,0.0,0.483435173278,0.875380164978,"(1.7976931348623157e+308, 0.0, 0.0, 0.0, 1.7976931348623157e+308, 0.0, 0.0, 0.0, 0.05)",0.0,0.0,-0.00715584993318,"(1.7976931348623157e+308, 0.0, 0.0, 0.0, 1.7976931348623157e+308, 0.0, 0.0, 0.0, 0.05)",0.0,0.0,0.0,"(0.0, 0.0, 0.0, 0.0, 0.0, 0.0, 0.0, 0.0, 0.0)"
2019/10/07/19:21:19.312549,7930,1570443679,312133480,gyro_link,0.0,0.0,0.483511562768,0.875337973968,"(1.7976931348623157e+308, 0.0, 0.0, 0.0, 1.7976931348623157e+308, 0.0, 0.0, 0.0, 0.05)",0.0,0.0,0.00279252680319,"(1.7976931348623157e+308, 0.0, 0.0, 0.0, 1.7976931348623157e+308, 0.0, 0.0, 0.0, 0.05)",0.0,0.0,0.0,"(0.0, 0.0, 0.0, 0.0, 0.0, 0.0, 0.0, 0.0, 0.0)"
2019/10/07/19:21:19.372464,7931,1570443679,372004086,gyro_link,0.0,0.0,0.483587948575,0.875295776291,"(1.7976931348623157e+308, 0.0, 0.0, 0.0, 1.7976931348623157e+308, 0.0, 0.0, 0.0, 0.05)",0.0,0.0,-0.00296705972839,"(1.7976931348623157e+308, 0.0, 0.0, 0.0, 1.7976931348623157e+308, 0.0, 0.0, 0.0, 0.05)",0.0,0.0,0.0,"(0.0, 0.0, 0.0, 0.0, 0.0, 0.0, 0.0, 0.0, 0.0)"
2019/10/07/19:21:19.432283,7932,1570443679,431814721,gyro_link,0.0,0.0,0.4836643307,0.875253571949,"(1.7976931348623157e+308, 0.0, 0.0, 0.0, 1.7976931348623157e+308, 0.0, 0.0, 0.0, 0.05)",0.0,0.0,0.00279252680319,"(1.7976931348623157e+308, 0.0, 0.0, 0.0, 1.7976931348623157e+308, 0.0, 0.0, 0.0, 0.05)",0.0,0.0,0.0,"(0.0, 0.0, 0.0, 0.0, 0.0, 0.0, 0.0, 0.0, 0.0)"
2019/10/07/19:21:19.492214,7933,1570443679,491738052,gyro_link,0.0,0.0,0.483358780107,0.875422349323,"(1.7976931348623157e+308, 0.0, 0.0, 0.0, 1.7976931348623157e+308, 0.0, 0.0, 0.0, 0.05)",0.0,0.0,-0.00314159265359,"(1.7976931348623157e+308, 0.0, 0.0, 0.0, 1.7976931348623157e+308, 0.0, 0.0, 0.0, 0.05)",0.0,0.0,0.0,"(0.0, 0.0, 0.0, 0.0, 0.0, 0.0, 0.0, 0.0, 0.0)"
2019/10/07/19:21:19.552022,7934,1570443679,551424516,gyro_link,0.0,0.0,0.483358780107,0.875422349323,"(1.7976931348623157e+308, 0.0, 0.0, 0.0, 1.7976931348623157e+308, 0.0, 0.0, 0.0, 0.05)",0.0,0.0,-0.00837758040957,"(1.7976931348623157e+308, 0.0, 0.0, 0.0, 1.7976931348623157e+308, 0.0, 0.0, 0.0, 0.05)",0.0,0.0,0.0,"(0.0, 0.0, 0.0, 0.0, 0.0, 0.0, 0.0, 0.0, 0.0)"
2019/10/07/19:21:19.612239,7935,1570443679,611850088,gyro_link,0.0,0.0,0.483511562768,0.875337973968,"(1.7976931348623157e+308, 0.0, 0.0, 0.0, 1.7976931348623157e+308, 0.0, 0.0, 0.0, 0.05)",0.0,0.0,0.00942477796077,"(1.7976931348623157e+308, 0.0, 0.0, 0.0, 1.7976931348623157e+308, 0.0, 0.0, 0.0, 0.05)",0.0,0.0,0.0,"(0.0, 0.0, 0.0, 0.0, 0.0, 0.0, 0.0, 0.0, 0.0)"
2019/10/07/19:21:19.672025,7936,1570443679,671376516,gyro_link,0.0,0.0,0.483282383255,0.875464527,"(1.7976931348623157e+308, 0.0, 0.0, 0.0, 1.7976931348623157e+308, 0.0, 0.0, 0.0, 0.05)",0.0,0.0,-0.0171042266695,"(1.7976931348623157e+308, 0.0, 0.0, 0.0, 1.7976931348623157e+308, 0.0, 0.0, 0.0, 0.05)",0.0,0.0,0.0,"(0.0, 0.0, 0.0, 0.0, 0.0, 0.0, 0.0, 0.0, 0.0)"
2019/10/07/19:21:19.731783,7937,1570443679,731390273,gyro_link,0.0,0.0,0.483205982722,0.87550669801,"(1.7976931348623157e+308, 0.0, 0.0, 0.0, 1.7976931348623157e+308, 0.0, 0.0, 0.0, 0.05)",0.0,0.0,-0.00506145483078,"(1.7976931348623157e+308, 0.0, 0.0, 0.0, 1.7976931348623157e+308, 0.0, 0.0, 0.0, 0.05)",0.0,0.0,0.0,"(0.0, 0.0, 0.0, 0.0, 0.0, 0.0, 0.0, 0.0, 0.0)"
2019/10/07/19:21:19.791699,7938,1570443679,791072833,gyro_link,0.0,0.0,0.483282383255,0.875464527,"(1.7976931348623157e+308, 0.0, 0.0, 0.0, 1.7976931348623157e+308, 0.0, 0.0, 0.0, 0.05)",0.0,0.0,0.00767944870878,"(1.7976931348623157e+308, 0.0, 0.0, 0.0, 1.7976931348623157e+308, 0.0, 0.0, 0.0, 0.05)",0.0,0.0,0.0,"(0.0, 0.0, 0.0, 0.0, 0.0, 0.0, 0.0, 0.0, 0.0)"
2019/10/07/19:21:19.851653,7939,1570443679,851082163,gyro_link,0.0,0.0,0.483205982722,0.87550669801,"(1.7976931348623157e+308, 0.0, 0.0, 0.0, 1.7976931348623157e+308, 0.0, 0.0, 0.0, 0.05)",0.0,0.0,-0.0157079632679,"(1.7976931348623157e+308, 0.0, 0.0, 0.0, 1.7976931348623157e+308, 0.0, 0.0, 0.0, 0.05)",0.0,0.0,0.0,"(0.0, 0.0, 0.0, 0.0, 0.0, 0.0, 0.0, 0.0, 0.0)"
2019/10/07/19:21:19.911695,7940,1570443679,910918473,gyro_link,0.0,0.0,0.482747502272,0.875759584047,"(1.7976931348623157e+308, 0.0, 0.0, 0.0, 1.7976931348623157e+308, 0.0, 0.0, 0.0, 0.05)",0.0,0.0,-0.000523598775598,"(1.7976931348623157e+308, 0.0, 0.0, 0.0, 1.7976931348623157e+308, 0.0, 0.0, 0.0, 0.05)",0.0,0.0,0.0,"(0.0, 0.0, 0.0, 0.0, 0.0, 0.0, 0.0, 0.0, 0.0)"
2019/10/07/19:21:19.932859,7941,1570443679,932072815,gyro_link,0.0,0.0,0.482823924874,0.875717453046,"(1.7976931348623157e+308, 0.0, 0.0, 0.0, 1.7976931348623157e+308, 0.0, 0.0, 0.0, 0.05)",0.0,0.0,0.00715584993318,"(1.7976931348623157e+308, 0.0, 0.0, 0.0, 1.7976931348623157e+308, 0.0, 0.0, 0.0, 0.05)",0.0,0.0,0.0,"(0.0, 0.0, 0.0, 0.0, 0.0, 0.0, 0.0, 0.0, 0.0)"
2019/10/07/19:21:19.971519,7942,1570443679,970934059,gyro_link,0.0,0.0,0.48312957851,0.875548862354,"(1.7976931348623157e+308, 0.0, 0.0, 0.0, 1.7976931348623157e+308, 0.0, 0.0, 0.0, 0.05)",0.0,0.0,0.0153588974176,"(1.7976931348623157e+308, 0.0, 0.0, 0.0, 1.7976931348623157e+308, 0.0, 0.0, 0.0, 0.05)",0.0,0.0,0.0,"(0.0, 0.0, 0.0, 0.0, 0.0, 0.0, 0.0, 0.0, 0.0)"
2019/10/07/19:21:20.031360,7943,1570443680,30831772,gyro_link,0.0,0.0,0.483358780107,0.875422349323,"(1.7976931348623157e+308, 0.0, 0.0, 0.0, 1.7976931348623157e+308, 0.0, 0.0, 0.0, 0.05)",0.0,0.0,0.000523598775598,"(1.7976931348623157e+308, 0.0, 0.0, 0.0, 1.7976931348623157e+308, 0.0, 0.0, 0.0, 0.05)",0.0,0.0,0.0,"(0.0, 0.0, 0.0, 0.0, 0.0, 0.0, 0.0, 0.0, 0.0)"
2019/10/07/19:21:20.090392,7944,1570443680,89743013,gyro_link,0.0,0.0,0.482976759048,0.875633171036,"(1.7976931348623157e+308, 0.0, 0.0, 0.0, 1.7976931348623157e+308, 0.0, 0.0, 0.0, 0.05)",0.0,0.0,-0.00802851455917,"(1.7976931348623157e+308, 0.0, 0.0, 0.0, 1.7976931348623157e+308, 0.0, 0.0, 0.0, 0.05)",0.0,0.0,0.0,"(0.0, 0.0, 0.0, 0.0, 0.0, 0.0, 0.0, 0.0, 0.0)"
2019/10/07/19:21:20.148027,7945,1570443680,147366343,gyro_link,0.0,0.0,0.483205982722,0.87550669801,"(1.7976931348623157e+308, 0.0, 0.0, 0.0, 1.7976931348623157e+308, 0.0, 0.0, 0.0, 0.05)",0.0,0.0,0.0111701072128,"(1.7976931348623157e+308, 0.0, 0.0, 0.0, 1.7976931348623157e+308, 0.0, 0.0, 0.0, 0.05)",0.0,0.0,0.0,"(0.0, 0.0, 0.0, 0.0, 0.0, 0.0, 0.0, 0.0, 0.0)"
2019/10/07/19:21:20.169948,7946,1570443680,169493031,gyro_link,0.0,0.0,0.483205982722,0.87550669801,"(1.7976931348623157e+308, 0.0, 0.0, 0.0, 1.7976931348623157e+308, 0.0, 0.0, 0.0, 0.05)",0.0,0.0,0.000698131700798,"(1.7976931348623157e+308, 0.0, 0.0, 0.0, 1.7976931348623157e+308, 0.0, 0.0, 0.0, 0.05)",0.0,0.0,0.0,"(0.0, 0.0, 0.0, 0.0, 0.0, 0.0, 0.0, 0.0, 0.0)"
2019/10/07/19:21:20.227952,7947,1570443680,227447449,gyro_link,0.0,0.0,0.483358780107,0.875422349323,"(1.7976931348623157e+308, 0.0, 0.0, 0.0, 1.7976931348623157e+308, 0.0, 0.0, 0.0, 0.05)",0.0,0.0,-0.000174532925199,"(1.7976931348623157e+308, 0.0, 0.0, 0.0, 1.7976931348623157e+308, 0.0, 0.0, 0.0, 0.05)",0.0,0.0,0.0,"(0.0, 0.0, 0.0, 0.0, 0.0, 0.0, 0.0, 0.0, 0.0)"
2019/10/07/19:21:20.249935,7948,1570443680,249365534,gyro_link,0.0,0.0,0.483282383255,0.875464527,"(1.7976931348623157e+308, 0.0, 0.0, 0.0, 1.7976931348623157e+308, 0.0, 0.0, 0.0, 0.05)",0.0,0.0,-0.0115191730632,"(1.7976931348623157e+308, 0.0, 0.0, 0.0, 1.7976931348623157e+308, 0.0, 0.0, 0.0, 0.05)",0.0,0.0,0.0,"(0.0, 0.0, 0.0, 0.0, 0.0, 0.0, 0.0, 0.0, 0.0)"
2019/10/07/19:21:20.307612,7949,1570443680,307262922,gyro_link,0.0,0.0,0.482747502272,0.875759584047,"(1.7976931348623157e+308, 0.0, 0.0, 0.0, 1.7976931348623157e+308, 0.0, 0.0, 0.0, 0.05)",0.0,0.0,-0.00453785605519,"(1.7976931348623157e+308, 0.0, 0.0, 0.0, 1.7976931348623157e+308, 0.0, 0.0, 0.0, 0.05)",0.0,0.0,0.0,"(0.0, 0.0, 0.0, 0.0, 0.0, 0.0, 0.0, 0.0, 0.0)"
2019/10/07/19:21:20.329413,7950,1570443680,329029832,gyro_link,0.0,0.0,0.482747502272,0.875759584047,"(1.7976931348623157e+308, 0.0, 0.0, 0.0, 1.7976931348623157e+308, 0.0, 0.0, 0.0, 0.05)",0.0,0.0,0.000872664625997,"(1.7976931348623157e+308, 0.0, 0.0, 0.0, 1.7976931348623157e+308, 0.0, 0.0, 0.0, 0.05)",0.0,0.0,0.0,"(0.0, 0.0, 0.0, 0.0, 0.0, 0.0, 0.0, 0.0, 0.0)"
2019/10/07/19:21:20.389587,7951,1570443680,389143638,gyro_link,0.0,0.0,0.4829003438,0.875675315375,"(1.7976931348623157e+308, 0.0, 0.0, 0.0, 1.7976931348623157e+308, 0.0, 0.0, 0.0, 0.05)",0.0,0.0,0.00488692190558,"(1.7976931348623157e+308, 0.0, 0.0, 0.0, 1.7976931348623157e+308, 0.0, 0.0, 0.0, 0.05)",0.0,0.0,0.0,"(0.0, 0.0, 0.0, 0.0, 0.0, 0.0, 0.0, 0.0, 0.0)"
2019/10/07/19:21:20.449813,7952,1570443680,449434420,gyro_link,0.0,0.0,0.4829003438,0.875675315375,"(1.7976931348623157e+308, 0.0, 0.0, 0.0, 1.7976931348623157e+308, 0.0, 0.0, 0.0, 0.05)",0.0,0.0,-0.00558505360638,"(1.7976931348623157e+308, 0.0, 0.0, 0.0, 1.7976931348623157e+308, 0.0, 0.0, 0.0, 0.05)",0.0,0.0,0.0,"(0.0, 0.0, 0.0, 0.0, 0.0, 0.0, 0.0, 0.0, 0.0)"
2019/10/07/19:21:20.509584,7953,1570443680,508955155,gyro_link,0.0,0.0,0.482671075992,0.875801708379,"(1.7976931348623157e+308, 0.0, 0.0, 0.0, 1.7976931348623157e+308, 0.0, 0.0, 0.0, 0.05)",0.0,0.0,0.00785398163397,"(1.7976931348623157e+308, 0.0, 0.0, 0.0, 1.7976931348623157e+308, 0.0, 0.0, 0.0, 0.05)",0.0,0.0,0.0,"(0.0, 0.0, 0.0, 0.0, 0.0, 0.0, 0.0, 0.0, 0.0)"
2019/10/07/19:21:20.569238,7954,1570443680,568909661,gyro_link,0.0,0.0,0.482823924874,0.875717453046,"(1.7976931348623157e+308, 0.0, 0.0, 0.0, 1.7976931348623157e+308, 0.0, 0.0, 0.0, 0.05)",0.0,0.0,0.00785398163397,"(1.7976931348623157e+308, 0.0, 0.0, 0.0, 1.7976931348623157e+308, 0.0, 0.0, 0.0, 0.05)",0.0,0.0,0.0,"(0.0, 0.0, 0.0, 0.0, 0.0, 0.0, 0.0, 0.0, 0.0)"
2019/10/07/19:21:20.629506,7955,1570443680,628791162,gyro_link,0.0,0.0,0.482823924874,0.875717453046,"(1.7976931348623157e+308, 0.0, 0.0, 0.0, 1.7976931348623157e+308, 0.0, 0.0, 0.0, 0.05)",0.0,0.0,-0.00820304748437,"(1.7976931348623157e+308, 0.0, 0.0, 0.0, 1.7976931348623157e+308, 0.0, 0.0, 0.0, 0.05)",0.0,0.0,0.0,"(0.0, 0.0, 0.0, 0.0, 0.0, 0.0, 0.0, 0.0, 0.0)"
2019/10/07/19:21:20.689118,7956,1570443680,688794772,gyro_link,0.0,0.0,0.482441775103,0.875928041357,"(1.7976931348623157e+308, 0.0, 0.0, 0.0, 1.7976931348623157e+308, 0.0, 0.0, 0.0, 0.05)",0.0,0.0,-0.0165806278939,"(1.7976931348623157e+308, 0.0, 0.0, 0.0, 1.7976931348623157e+308, 0.0, 0.0, 0.0, 0.05)",0.0,0.0,0.0,"(0.0, 0.0, 0.0, 0.0, 0.0, 0.0, 0.0, 0.0, 0.0)"
2019/10/07/19:21:20.748842,7957,1570443680,748590326,gyro_link,0.0,0.0,0.482518212408,0.875885937035,"(1.7976931348623157e+308, 0.0, 0.0, 0.0, 1.7976931348623157e+308, 0.0, 0.0, 0.0, 0.05)",0.0,0.0,-0.000174532925199,"(1.7976931348623157e+308, 0.0, 0.0, 0.0, 1.7976931348623157e+308, 0.0, 0.0, 0.0, 0.05)",0.0,0.0,0.0,"(0.0, 0.0, 0.0, 0.0, 0.0, 0.0, 0.0, 0.0, 0.0)"
2019/10/07/19:21:20.808635,7958,1570443680,808322223,gyro_link,0.0,0.0,0.482594646038,0.875843826042,"(1.7976931348623157e+308, 0.0, 0.0, 0.0, 1.7976931348623157e+308, 0.0, 0.0, 0.0, 0.05)",0.0,0.0,0.00628318530718,"(1.7976931348623157e+308, 0.0, 0.0, 0.0, 1.7976931348623157e+308, 0.0, 0.0, 0.0, 0.05)",0.0,0.0,0.0,"(0.0, 0.0, 0.0, 0.0, 0.0, 0.0, 0.0, 0.0, 0.0)"
2019/10/07/19:21:20.868725,7959,1570443680,868350486,gyro_link,0.0,0.0,0.482518212408,0.875885937035,"(1.7976931348623157e+308, 0.0, 0.0, 0.0, 1.7976931348623157e+308, 0.0, 0.0, 0.0, 0.05)",0.0,0.0,-0.0134390352404,"(1.7976931348623157e+308, 0.0, 0.0, 0.0, 1.7976931348623157e+308, 0.0, 0.0, 0.0, 0.05)",0.0,0.0,0.0,"(0.0, 0.0, 0.0, 0.0, 0.0, 0.0, 0.0, 0.0, 0.0)"
2019/10/07/19:21:20.927606,7960,1570443680,927255135,gyro_link,0.0,0.0,0.482365334125,0.875970139009,"(1.7976931348623157e+308, 0.0, 0.0, 0.0, 1.7976931348623157e+308, 0.0, 0.0, 0.0, 0.05)",0.0,0.0,0.000174532925199,"(1.7976931348623157e+308, 0.0, 0.0, 0.0, 1.7976931348623157e+308, 0.0, 0.0, 0.0, 0.05)",0.0,0.0,0.0,"(0.0, 0.0, 0.0, 0.0, 0.0, 0.0, 0.0, 0.0, 0.0)"
2019/10/07/19:21:20.985402,7961,1570443680,984979094,gyro_link,0.0,0.0,0.482288889473,0.87601222999,"(1.7976931348623157e+308, 0.0, 0.0, 0.0, 1.7976931348623157e+308, 0.0, 0.0, 0.0, 0.05)",0.0,0.0,-0.00244346095279,"(1.7976931348623157e+308, 0.0, 0.0, 0.0, 1.7976931348623157e+308, 0.0, 0.0, 0.0, 0.05)",0.0,0.0,0.0,"(0.0, 0.0, 0.0, 0.0, 0.0, 0.0, 0.0, 0.0, 0.0)"
2019/10/07/19:21:21.008419,7962,1570443681,7985606,gyro_link,0.0,0.0,0.482365334125,0.875970139009,"(1.7976931348623157e+308, 0.0, 0.0, 0.0, 1.7976931348623157e+308, 0.0, 0.0, 0.0, 0.05)",0.0,0.0,0.00872664625997,"(1.7976931348623157e+308, 0.0, 0.0, 0.0, 1.7976931348623157e+308, 0.0, 0.0, 0.0, 0.05)",0.0,0.0,0.0,"(0.0, 0.0, 0.0, 0.0, 0.0, 0.0, 0.0, 0.0, 0.0)"
2019/10/07/19:21:21.067261,7963,1570443681,66981867,gyro_link,0.0,0.0,0.482441775103,0.875928041357,"(1.7976931348623157e+308, 0.0, 0.0, 0.0, 1.7976931348623157e+308, 0.0, 0.0, 0.0, 0.05)",0.0,0.0,-0.00837758040957,"(1.7976931348623157e+308, 0.0, 0.0, 0.0, 1.7976931348623157e+308, 0.0, 0.0, 0.0, 0.05)",0.0,0.0,0.0,"(0.0, 0.0, 0.0, 0.0, 0.0, 0.0, 0.0, 0.0, 0.0)"
2019/10/07/19:21:21.125073,7964,1570443681,124723335,gyro_link,0.0,0.0,0.482288889473,0.87601222999,"(1.7976931348623157e+308, 0.0, 0.0, 0.0, 1.7976931348623157e+308, 0.0, 0.0, 0.0, 0.05)",0.0,0.0,0.00541052068118,"(1.7976931348623157e+308, 0.0, 0.0, 0.0, 1.7976931348623157e+308, 0.0, 0.0, 0.0, 0.05)",0.0,0.0,0.0,"(0.0, 0.0, 0.0, 0.0, 0.0, 0.0, 0.0, 0.0, 0.0)"
2019/10/07/19:21:21.147335,7965,1570443681,146988304,gyro_link,0.0,0.0,0.482365334125,0.875970139009,"(1.7976931348623157e+308, 0.0, 0.0, 0.0, 1.7976931348623157e+308, 0.0, 0.0, 0.0, 0.05)",0.0,0.0,0.00628318530718,"(1.7976931348623157e+308, 0.0, 0.0, 0.0, 1.7976931348623157e+308, 0.0, 0.0, 0.0, 0.05)",0.0,0.0,0.0,"(0.0, 0.0, 0.0, 0.0, 0.0, 0.0, 0.0, 0.0, 0.0)"
2019/10/07/19:21:21.204934,7966,1570443681,204590138,gyro_link,0.0,0.0,0.482365334125,0.875970139009,"(1.7976931348623157e+308, 0.0, 0.0, 0.0, 1.7976931348623157e+308, 0.0, 0.0, 0.0, 0.05)",0.0,0.0,-0.000698131700798,"(1.7976931348623157e+308, 0.0, 0.0, 0.0, 1.7976931348623157e+308, 0.0, 0.0, 0.0, 0.05)",0.0,0.0,0.0,"(0.0, 0.0, 0.0, 0.0, 0.0, 0.0, 0.0, 0.0, 0.0)"
2019/10/07/19:21:21.227151,7967,1570443681,226752209,gyro_link,0.0,0.0,0.482441775103,0.875928041357,"(1.7976931348623157e+308, 0.0, 0.0, 0.0, 1.7976931348623157e+308, 0.0, 0.0, 0.0, 0.05)",0.0,0.0,0.00680678408278,"(1.7976931348623157e+308, 0.0, 0.0, 0.0, 1.7976931348623157e+308, 0.0, 0.0, 0.0, 0.05)",0.0,0.0,0.0,"(0.0, 0.0, 0.0, 0.0, 0.0, 0.0, 0.0, 0.0, 0.0)"
2019/10/07/19:21:21.284724,7968,1570443681,284491632,gyro_link,0.0,0.0,0.482059533482,0.876138462904,"(1.7976931348623157e+308, 0.0, 0.0, 0.0, 1.7976931348623157e+308, 0.0, 0.0, 0.0, 0.05)",0.0,0.0,-0.0265290046303,"(1.7976931348623157e+308, 0.0, 0.0, 0.0, 1.7976931348623157e+308, 0.0, 0.0, 0.0, 0.05)",0.0,0.0,0.0,"(0.0, 0.0, 0.0, 0.0, 0.0, 0.0, 0.0, 0.0, 0.0)"
2019/10/07/19:21:21.306549,7969,1570443681,306187115,gyro_link,0.0,0.0,0.481983074142,0.876180527198,"(1.7976931348623157e+308, 0.0, 0.0, 0.0, 1.7976931348623157e+308, 0.0, 0.0, 0.0, 0.05)",0.0,0.0,-0.00506145483078,"(1.7976931348623157e+308, 0.0, 0.0, 0.0, 1.7976931348623157e+308, 0.0, 0.0, 0.0, 0.05)",0.0,0.0,0.0,"(0.0, 0.0, 0.0, 0.0, 0.0, 0.0, 0.0, 0.0, 0.0)"
2019/10/07/19:21:21.364645,7970,1570443681,364301676,gyro_link,0.0,0.0,0.482135989151,0.876096391937,"(1.7976931348623157e+308, 0.0, 0.0, 0.0, 1.7976931348623157e+308, 0.0, 0.0, 0.0, 0.05)",0.0,0.0,-0.00331612557879,"(1.7976931348623157e+308, 0.0, 0.0, 0.0, 1.7976931348623157e+308, 0.0, 0.0, 0.0, 0.05)",0.0,0.0,0.0,"(0.0, 0.0, 0.0, 0.0, 0.0, 0.0, 0.0, 0.0, 0.0)"
2019/10/07/19:21:21.386824,7971,1570443681,386335971,gyro_link,0.0,0.0,0.482135989151,0.876096391937,"(1.7976931348623157e+308, 0.0, 0.0, 0.0, 1.7976931348623157e+308, 0.0, 0.0, 0.0, 0.05)",0.0,0.0,0.00157079632679,"(1.7976931348623157e+308, 0.0, 0.0, 0.0, 1.7976931348623157e+308, 0.0, 0.0, 0.0, 0.05)",0.0,0.0,0.0,"(0.0, 0.0, 0.0, 0.0, 0.0, 0.0, 0.0, 0.0, 0.0)"
2019/10/07/19:21:21.446585,7972,1570443681,445971762,gyro_link,0.0,0.0,0.482212441148,0.876054314299,"(1.7976931348623157e+308, 0.0, 0.0, 0.0, 1.7976931348623157e+308, 0.0, 0.0, 0.0, 0.05)",0.0,0.0,-0.0109955742876,"(1.7976931348623157e+308, 0.0, 0.0, 0.0, 1.7976931348623157e+308, 0.0, 0.0, 0.0, 0.05)",0.0,0.0,0.0,"(0.0, 0.0, 0.0, 0.0, 0.0, 0.0, 0.0, 0.0, 0.0)"
2019/10/07/19:21:21.506847,7973,1570443681,506328243,gyro_link,0.0,0.0,0.481753674102,0.876306680044,"(1.7976931348623157e+308, 0.0, 0.0, 0.0, 1.7976931348623157e+308, 0.0, 0.0, 0.0, 0.05)",0.0,0.0,-0.00471238898038,"(1.7976931348623157e+308, 0.0, 0.0, 0.0, 1.7976931348623157e+308, 0.0, 0.0, 0.0, 0.05)",0.0,0.0,0.0,"(0.0, 0.0, 0.0, 0.0, 0.0, 0.0, 0.0, 0.0, 0.0)"
2019/10/07/19:21:21.566499,7974,1570443681,565989282,gyro_link,0.0,0.0,0.481906611132,0.876222584819,"(1.7976931348623157e+308, 0.0, 0.0, 0.0, 1.7976931348623157e+308, 0.0, 0.0, 0.0, 0.05)",0.0,0.0,-0.00558505360638,"(1.7976931348623157e+308, 0.0, 0.0, 0.0, 1.7976931348623157e+308, 0.0, 0.0, 0.0, 0.05)",0.0,0.0,0.0,"(0.0, 0.0, 0.0, 0.0, 0.0, 0.0, 0.0, 0.0, 0.0)"
2019/10/07/19:21:21.626296,7975,1570443681,625871834,gyro_link,0.0,0.0,0.481983074142,0.876180527198,"(1.7976931348623157e+308, 0.0, 0.0, 0.0, 1.7976931348623157e+308, 0.0, 0.0, 0.0, 0.05)",0.0,0.0,0.00925024503557,"(1.7976931348623157e+308, 0.0, 0.0, 0.0, 1.7976931348623157e+308, 0.0, 0.0, 0.0, 0.05)",0.0,0.0,0.0,"(0.0, 0.0, 0.0, 0.0, 0.0, 0.0, 0.0, 0.0, 0.0)"
2019/10/07/19:21:21.686196,7976,1570443681,685921433,gyro_link,0.0,0.0,0.481600722397,0.876390748574,"(1.7976931348623157e+308, 0.0, 0.0, 0.0, 1.7976931348623157e+308, 0.0, 0.0, 0.0, 0.05)",0.0,0.0,-0.00994837673637,"(1.7976931348623157e+308, 0.0, 0.0, 0.0, 1.7976931348623157e+308, 0.0, 0.0, 0.0, 0.05)",0.0,0.0,0.0,"(0.0, 0.0, 0.0, 0.0, 0.0, 0.0, 0.0, 0.0, 0.0)"
2019/10/07/19:21:21.746159,7977,1570443681,745643906,gyro_link,0.0,0.0,0.481983074142,0.876180527198,"(1.7976931348623157e+308, 0.0, 0.0, 0.0, 1.7976931348623157e+308, 0.0, 0.0, 0.0, 0.05)",0.0,0.0,0.0162315620435,"(1.7976931348623157e+308, 0.0, 0.0, 0.0, 1.7976931348623157e+308, 0.0, 0.0, 0.0, 0.05)",0.0,0.0,0.0,"(0.0, 0.0, 0.0, 0.0, 0.0, 0.0, 0.0, 0.0, 0.0)"
2019/10/07/19:21:21.806031,7978,1570443681,805601997,gyro_link,0.0,0.0,0.481830144451,0.876264635768,"(1.7976931348623157e+308, 0.0, 0.0, 0.0, 1.7976931348623157e+308, 0.0, 0.0, 0.0, 0.05)",0.0,0.0,-0.00244346095279,"(1.7976931348623157e+308, 0.0, 0.0, 0.0, 1.7976931348623157e+308, 0.0, 0.0, 0.0, 0.05)",0.0,0.0,0.0,"(0.0, 0.0, 0.0, 0.0, 0.0, 0.0, 0.0, 0.0, 0.0)"
2019/10/07/19:21:21.865860,7979,1570443681,865503447,gyro_link,0.0,0.0,0.481677200083,0.876348717646,"(1.7976931348623157e+308, 0.0, 0.0, 0.0, 1.7976931348623157e+308, 0.0, 0.0, 0.0, 0.05)",0.0,0.0,-0.0202458193231,"(1.7976931348623157e+308, 0.0, 0.0, 0.0, 1.7976931348623157e+308, 0.0, 0.0, 0.0, 0.05)",0.0,0.0,0.0,"(0.0, 0.0, 0.0, 0.0, 0.0, 0.0, 0.0, 0.0, 0.0)"
2019/10/07/19:21:21.925621,7980,1570443681,925214513,gyro_link,0.0,0.0,0.481753674102,0.876306680044,"(1.7976931348623157e+308, 0.0, 0.0, 0.0, 1.7976931348623157e+308, 0.0, 0.0, 0.0, 0.05)",0.0,0.0,0.0256563400043,"(1.7976931348623157e+308, 0.0, 0.0, 0.0, 1.7976931348623157e+308, 0.0, 0.0, 0.0, 0.05)",0.0,0.0,0.0,"(0.0, 0.0, 0.0, 0.0, 0.0, 0.0, 0.0, 0.0, 0.0)"
2019/10/07/19:21:21.985627,7981,1570443681,985366928,gyro_link,0.0,0.0,0.481830144451,0.876264635768,"(1.7976931348623157e+308, 0.0, 0.0, 0.0, 1.7976931348623157e+308, 0.0, 0.0, 0.0, 0.05)",0.0,0.0,-0.00959931088597,"(1.7976931348623157e+308, 0.0, 0.0, 0.0, 1.7976931348623157e+308, 0.0, 0.0, 0.0, 0.05)",0.0,0.0,0.0,"(0.0, 0.0, 0.0, 0.0, 0.0, 0.0, 0.0, 0.0, 0.0)"
2019/10/07/19:21:22.045655,7982,1570443682,45149105,gyro_link,0.0,0.0,0.481600722397,0.876390748574,"(1.7976931348623157e+308, 0.0, 0.0, 0.0, 1.7976931348623157e+308, 0.0, 0.0, 0.0, 0.05)",0.0,0.0,-0.0214675497995,"(1.7976931348623157e+308, 0.0, 0.0, 0.0, 1.7976931348623157e+308, 0.0, 0.0, 0.0, 0.05)",0.0,0.0,0.0,"(0.0, 0.0, 0.0, 0.0, 0.0, 0.0, 0.0, 0.0, 0.0)"
2019/10/07/19:21:22.104337,7983,1570443682,103935885,gyro_link,0.0,0.0,0.48129477498,0.876558805544,"(1.7976931348623157e+308, 0.0, 0.0, 0.0, 1.7976931348623157e+308, 0.0, 0.0, 0.0, 0.05)",0.0,0.0,0.0115191730632,"(1.7976931348623157e+308, 0.0, 0.0, 0.0, 1.7976931348623157e+308, 0.0, 0.0, 0.0, 0.05)",0.0,0.0,0.0,"(0.0, 0.0, 0.0, 0.0, 0.0, 0.0, 0.0, 0.0, 0.0)"
2019/10/07/19:21:22.162243,7984,1570443682,161837210,gyro_link,0.0,0.0,0.481447756021,0.876474790409,"(1.7976931348623157e+308, 0.0, 0.0, 0.0, 1.7976931348623157e+308, 0.0, 0.0, 0.0, 0.05)",0.0,0.0,-0.00820304748437,"(1.7976931348623157e+308, 0.0, 0.0, 0.0, 1.7976931348623157e+308, 0.0, 0.0, 0.0, 0.05)",0.0,0.0,0.0,"(0.0, 0.0, 0.0, 0.0, 0.0, 0.0, 0.0, 0.0, 0.0)"
2019/10/07/19:21:22.185134,7985,1570443682,184870164,gyro_link,0.0,0.0,0.481371267334,0.876516801314,"(1.7976931348623157e+308, 0.0, 0.0, 0.0, 1.7976931348623157e+308, 0.0, 0.0, 0.0, 0.05)",0.0,0.0,-0.00820304748437,"(1.7976931348623157e+308, 0.0, 0.0, 0.0, 1.7976931348623157e+308, 0.0, 0.0, 0.0, 0.05)",0.0,0.0,0.0,"(0.0, 0.0, 0.0, 0.0, 0.0, 0.0, 0.0, 0.0, 0.0)"
2019/10/07/19:21:22.243847,7986,1570443682,243535361,gyro_link,0.0,0.0,0.480988768919,0.876726755708,"(1.7976931348623157e+308, 0.0, 0.0, 0.0, 1.7976931348623157e+308, 0.0, 0.0, 0.0, 0.05)",0.0,0.0,-0.0200712863979,"(1.7976931348623157e+308, 0.0, 0.0, 0.0, 1.7976931348623157e+308, 0.0, 0.0, 0.0, 0.05)",0.0,0.0,0.0,"(0.0, 0.0, 0.0, 0.0, 0.0, 0.0, 0.0, 0.0, 0.0)"
2019/10/07/19:21:22.301696,7987,1570443682,301404093,gyro_link,0.0,0.0,0.480759225911,0.876852648226,"(1.7976931348623157e+308, 0.0, 0.0, 0.0, 1.7976931348623157e+308, 0.0, 0.0, 0.0, 0.05)",0.0,0.0,0.0171042266695,"(1.7976931348623157e+308, 0.0, 0.0, 0.0, 1.7976931348623157e+308, 0.0, 0.0, 0.0, 0.05)",0.0,0.0,0.0,"(0.0, 0.0, 0.0, 0.0, 0.0, 0.0, 0.0, 0.0, 0.0)"
2019/10/07/19:21:22.324770,7988,1570443682,324434614,gyro_link,0.0,0.0,0.480912258245,0.876768726558,"(1.7976931348623157e+308, 0.0, 0.0, 0.0, 1.7976931348623157e+308, 0.0, 0.0, 0.0, 0.05)",0.0,0.0,0.0204203522483,"(1.7976931348623157e+308, 0.0, 0.0, 0.0, 1.7976931348623157e+308, 0.0, 0.0, 0.0, 0.05)",0.0,0.0,0.0,"(0.0, 0.0, 0.0, 0.0, 0.0, 0.0, 0.0, 0.0, 0.0)"
2019/10/07/19:21:22.383888,7989,1570443682,383293161,gyro_link,0.0,0.0,0.480988768919,0.876726755708,"(1.7976931348623157e+308, 0.0, 0.0, 0.0, 1.7976931348623157e+308, 0.0, 0.0, 0.0, 0.05)",0.0,0.0,-0.00767944870878,"(1.7976931348623157e+308, 0.0, 0.0, 0.0, 1.7976931348623157e+308, 0.0, 0.0, 0.0, 0.05)",0.0,0.0,0.0,"(0.0, 0.0, 0.0, 0.0, 0.0, 0.0, 0.0, 0.0, 0.0)"
2019/10/07/19:21:22.441463,7990,1570443682,441085043,gyro_link,0.0,0.0,0.480682704252,0.876894599045,"(1.7976931348623157e+308, 0.0, 0.0, 0.0, 1.7976931348623157e+308, 0.0, 0.0, 0.0, 0.05)",0.0,0.0,-0.0198967534727,"(1.7976931348623157e+308, 0.0, 0.0, 0.0, 1.7976931348623157e+308, 0.0, 0.0, 0.0, 0.05)",0.0,0.0,0.0,"(0.0, 0.0, 0.0, 0.0, 0.0, 0.0, 0.0, 0.0, 0.0)"
2019/10/07/19:21:22.463643,7991,1570443682,463157469,gyro_link,0.0,0.0,0.480453117312,0.87702041143,"(1.7976931348623157e+308, 0.0, 0.0, 0.0, 1.7976931348623157e+308, 0.0, 0.0, 0.0, 0.05)",0.0,0.0,-0.0228638132011,"(1.7976931348623157e+308, 0.0, 0.0, 0.0, 1.7976931348623157e+308, 0.0, 0.0, 0.0, 0.05)",0.0,0.0,0.0,"(0.0, 0.0, 0.0, 0.0, 0.0, 0.0, 0.0, 0.0, 0.0)"
2019/10/07/19:21:22.521141,7992,1570443682,520831382,gyro_link,0.0,0.0,0.480835743909,0.876810690731,"(1.7976931348623157e+308, 0.0, 0.0, 0.0, 1.7976931348623157e+308, 0.0, 0.0, 0.0, 0.05)",0.0,0.0,0.0279252680319,"(1.7976931348623157e+308, 0.0, 0.0, 0.0, 1.7976931348623157e+308, 0.0, 0.0, 0.0, 0.05)",0.0,0.0,0.0,"(0.0, 0.0, 0.0, 0.0, 0.0, 0.0, 0.0, 0.0, 0.0)"
2019/10/07/19:21:22.543373,7993,1570443682,542984032,gyro_link,0.0,0.0,0.480988768919,0.876726755708,"(1.7976931348623157e+308, 0.0, 0.0, 0.0, 1.7976931348623157e+308, 0.0, 0.0, 0.0, 0.05)",0.0,0.0,0.0193731546971,"(1.7976931348623157e+308, 0.0, 0.0, 0.0, 1.7976931348623157e+308, 0.0, 0.0, 0.0, 0.05)",0.0,0.0,0.0,"(0.0, 0.0, 0.0, 0.0, 0.0, 0.0, 0.0, 0.0, 0.0)"
2019/10/07/19:21:22.603355,7994,1570443682,603074668,gyro_link,0.0,0.0,0.480835743909,0.876810690731,"(1.7976931348623157e+308, 0.0, 0.0, 0.0, 1.7976931348623157e+308, 0.0, 0.0, 0.0, 0.05)",0.0,0.0,-0.0265290046303,"(1.7976931348623157e+308, 0.0, 0.0, 0.0, 1.7976931348623157e+308, 0.0, 0.0, 0.0, 0.05)",0.0,0.0,0.0,"(0.0, 0.0, 0.0, 0.0, 0.0, 0.0, 0.0, 0.0, 0.0)"
2019/10/07/19:21:22.663390,7995,1570443682,662887362,gyro_link,0.0,0.0,0.480070399244,0.877229965157,"(1.7976931348623157e+308, 0.0, 0.0, 0.0, 1.7976931348623157e+308, 0.0, 0.0, 0.0, 0.05)",0.0,0.0,-0.0235619449019,"(1.7976931348623157e+308, 0.0, 0.0, 0.0, 1.7976931348623157e+308, 0.0, 0.0, 0.0, 0.05)",0.0,0.0,0.0,"(0.0, 0.0, 0.0, 0.0, 0.0, 0.0, 0.0, 0.0, 0.0)"
2019/10/07/19:21:22.723267,7996,1570443682,722764056,gyro_link,0.0,0.0,0.480300041057,0.87710425296,"(1.7976931348623157e+308, 0.0, 0.0, 0.0, 1.7976931348623157e+308, 0.0, 0.0, 0.0, 0.05)",0.0,0.0,0.0237364778271,"(1.7976931348623157e+308, 0.0, 0.0, 0.0, 1.7976931348623157e+308, 0.0, 0.0, 0.0, 0.05)",0.0,0.0,0.0,"(0.0, 0.0, 0.0, 0.0, 0.0, 0.0, 0.0, 0.0, 0.0)"
2019/10/07/19:21:22.783140,7997,1570443682,782635994,gyro_link,0.0,0.0,0.480529649952,0.876978480647,"(1.7976931348623157e+308, 0.0, 0.0, 0.0, 1.7976931348623157e+308, 0.0, 0.0, 0.0, 0.05)",0.0,0.0,-0.00715584993318,"(1.7976931348623157e+308, 0.0, 0.0, 0.0, 1.7976931348623157e+308, 0.0, 0.0, 0.0, 0.05)",0.0,0.0,0.0,"(0.0, 0.0, 0.0, 0.0, 0.0, 0.0, 0.0, 0.0, 0.0)"
2019/10/07/19:21:22.842870,7998,1570443682,842343750,gyro_link,0.0,0.0,0.479917286421,0.877313739887,"(1.7976931348623157e+308, 0.0, 0.0, 0.0, 1.7976931348623157e+308, 0.0, 0.0, 0.0, 0.05)",0.0,0.0,-0.0221656815003,"(1.7976931348623157e+308, 0.0, 0.0, 0.0, 1.7976931348623157e+308, 0.0, 0.0, 0.0, 0.05)",0.0,0.0,0.0,"(0.0, 0.0, 0.0, 0.0, 0.0, 0.0, 0.0, 0.0, 0.0)"
2019/10/07/19:21:22.903121,7999,1570443682,902665072,gyro_link,0.0,0.0,0.47999384466,0.877271855862,"(1.7976931348623157e+308, 0.0, 0.0, 0.0, 1.7976931348623157e+308, 0.0, 0.0, 0.0, 0.05)",0.0,0.0,0.0310668606855,"(1.7976931348623157e+308, 0.0, 0.0, 0.0, 1.7976931348623157e+308, 0.0, 0.0, 0.0, 0.05)",0.0,0.0,0.0,"(0.0, 0.0, 0.0, 0.0, 0.0, 0.0, 0.0, 0.0, 0.0)"
2019/10/07/19:21:22.962847,8000,1570443682,962365666,gyro_link,0.0,0.0,0.480606178932,0.876936543185,"(1.7976931348623157e+308, 0.0, 0.0, 0.0, 1.7976931348623157e+308, 0.0, 0.0, 0.0, 0.05)",0.0,0.0,0.00802851455917,"(1.7976931348623157e+308, 0.0, 0.0, 0.0, 1.7976931348623157e+308, 0.0, 0.0, 0.0, 0.05)",0.0,0.0,0.0,"(0.0, 0.0, 0.0, 0.0, 0.0, 0.0, 0.0, 0.0, 0.0)"
2019/10/07/19:21:23.022758,8001,1570443683,22153460,gyro_link,0.0,0.0,0.479917286421,0.877313739887,"(1.7976931348623157e+308, 0.0, 0.0, 0.0, 1.7976931348623157e+308, 0.0, 0.0, 0.0, 0.05)",0.0,0.0,-0.0300196631343,"(1.7976931348623157e+308, 0.0, 0.0, 0.0, 1.7976931348623157e+308, 0.0, 0.0, 0.0, 0.05)",0.0,0.0,0.0,"(0.0, 0.0, 0.0, 0.0, 0.0, 0.0, 0.0, 0.0, 0.0)"
2019/10/07/19:21:23.081282,8002,1570443683,80886112,gyro_link,0.0,0.0,0.479611016922,0.87748120917,"(1.7976931348623157e+308, 0.0, 0.0, 0.0, 1.7976931348623157e+308, 0.0, 0.0, 0.0, 0.05)",0.0,0.0,0.0108210413624,"(1.7976931348623157e+308, 0.0, 0.0, 0.0, 1.7976931348623157e+308, 0.0, 0.0, 0.0, 0.05)",0.0,0.0,0.0,"(0.0, 0.0, 0.0, 0.0, 0.0, 0.0, 0.0, 0.0, 0.0)"
2019/10/07/19:21:23.102375,8003,1570443683,101836642,gyro_link,0.0,0.0,0.479840724527,0.87735561723,"(1.7976931348623157e+308, 0.0, 0.0, 0.0, 1.7976931348623157e+308, 0.0, 0.0, 0.0, 0.05)",0.0,0.0,0.0232128790515,"(1.7976931348623157e+308, 0.0, 0.0, 0.0, 1.7976931348623157e+308, 0.0, 0.0, 0.0, 0.05)",0.0,0.0,0.0,"(0.0, 0.0, 0.0, 0.0, 0.0, 0.0, 0.0, 0.0, 0.0)"
2019/10/07/19:21:23.161194,8004,1570443683,160847645,gyro_link,0.0,0.0,0.480070399244,0.877229965157,"(1.7976931348623157e+308, 0.0, 0.0, 0.0, 1.7976931348623157e+308, 0.0, 0.0, 0.0, 0.05)",0.0,0.0,-0.00663225115758,"(1.7976931348623157e+308, 0.0, 0.0, 0.0, 1.7976931348623157e+308, 0.0, 0.0, 0.0, 0.05)",0.0,0.0,0.0,"(0.0, 0.0, 0.0, 0.0, 0.0, 0.0, 0.0, 0.0, 0.0)"
2019/10/07/19:21:23.219189,8005,1570443683,218811728,gyro_link,0.0,0.0,0.479457860256,0.877564903719,"(1.7976931348623157e+308, 0.0, 0.0, 0.0, 1.7976931348623157e+308, 0.0, 0.0, 0.0, 0.05)",0.0,0.0,-0.0214675497995,"(1.7976931348623157e+308, 0.0, 0.0, 0.0, 1.7976931348623157e+308, 0.0, 0.0, 0.0, 0.05)",0.0,0.0,0.0,"(0.0, 0.0, 0.0, 0.0, 0.0, 0.0, 0.0, 0.0, 0.0)"
2019/10/07/19:21:23.241950,8006,1570443683,241576517,gyro_link,0.0,0.0,0.479304688984,0.877648571535,"(1.7976931348623157e+308, 0.0, 0.0, 0.0, 1.7976931348623157e+308, 0.0, 0.0, 0.0, 0.05)",0.0,0.0,-0.0118682389136,"(1.7976931348623157e+308, 0.0, 0.0, 0.0, 1.7976931348623157e+308, 0.0, 0.0, 0.0, 0.05)",0.0,0.0,0.0,"(0.0, 0.0, 0.0, 0.0, 0.0, 0.0, 0.0, 0.0, 0.0)"
2019/10/07/19:21:23.300972,8007,1570443683,300678272,gyro_link,0.0,0.0,0.479611016922,0.87748120917,"(1.7976931348623157e+308, 0.0, 0.0, 0.0, 1.7976931348623157e+308, 0.0, 0.0, 0.0, 0.05)",0.0,0.0,0.0214675497995,"(1.7976931348623157e+308, 0.0, 0.0, 0.0, 1.7976931348623157e+308, 0.0, 0.0, 0.0, 0.05)",0.0,0.0,0.0,"(0.0, 0.0, 0.0, 0.0, 0.0, 0.0, 0.0, 0.0, 0.0)"
2019/10/07/19:21:23.359073,8008,1570443683,358318291,gyro_link,0.0,0.0,0.47999384466,0.877271855862,"(1.7976931348623157e+308, 0.0, 0.0, 0.0, 1.7976931348623157e+308, 0.0, 0.0, 0.0, 0.05)",0.0,0.0,-0.00890117918517,"(1.7976931348623157e+308, 0.0, 0.0, 0.0, 1.7976931348623157e+308, 0.0, 0.0, 0.0, 0.05)",0.0,0.0,0.0,"(0.0, 0.0, 0.0, 0.0, 0.0, 0.0, 0.0, 0.0, 0.0)"
2019/10/07/19:21:23.380665,8009,1570443683,380322316,gyro_link,0.0,0.0,0.479840724527,0.87735561723,"(1.7976931348623157e+308, 0.0, 0.0, 0.0, 1.7976931348623157e+308, 0.0, 0.0, 0.0, 0.05)",0.0,0.0,-0.0258308729295,"(1.7976931348623157e+308, 0.0, 0.0, 0.0, 1.7976931348623157e+308, 0.0, 0.0, 0.0, 0.05)",0.0,0.0,0.0,"(0.0, 0.0, 0.0, 0.0, 0.0, 0.0, 0.0, 0.0, 0.0)"
2019/10/07/19:21:23.438627,8010,1570443683,438162684,gyro_link,0.0,0.0,0.479228097873,0.877690395418,"(1.7976931348623157e+308, 0.0, 0.0, 0.0, 1.7976931348623157e+308, 0.0, 0.0, 0.0, 0.05)",0.0,0.0,-0.0102974425868,"(1.7976931348623157e+308, 0.0, 0.0, 0.0, 1.7976931348623157e+308, 0.0, 0.0, 0.0, 0.05)",0.0,0.0,0.0,"(0.0, 0.0, 0.0, 0.0, 0.0, 0.0, 0.0, 0.0, 0.0)"
2019/10/07/19:21:23.460693,8011,1570443683,460346960,gyro_link,0.0,0.0,0.479228097873,0.877690395418,"(1.7976931348623157e+308, 0.0, 0.0, 0.0, 1.7976931348623157e+308, 0.0, 0.0, 0.0, 0.05)",0.0,0.0,0.00488692190558,"(1.7976931348623157e+308, 0.0, 0.0, 0.0, 1.7976931348623157e+308, 0.0, 0.0, 0.0, 0.05)",0.0,0.0,0.0,"(0.0, 0.0, 0.0, 0.0, 0.0, 0.0, 0.0, 0.0, 0.0)"
2019/10/07/19:21:23.518640,8012,1570443683,518139743,gyro_link,0.0,0.0,0.479534440415,0.877523059786,"(1.7976931348623157e+308, 0.0, 0.0, 0.0, 1.7976931348623157e+308, 0.0, 0.0, 0.0, 0.05)",0.0,0.0,0.0127409035396,"(1.7976931348623157e+308, 0.0, 0.0, 0.0, 1.7976931348623157e+308, 0.0, 0.0, 0.0, 0.05)",0.0,0.0,0.0,"(0.0, 0.0, 0.0, 0.0, 0.0, 0.0, 0.0, 0.0, 0.0)"
2019/10/07/19:21:23.540457,8013,1570443683,540041854,gyro_link,0.0,0.0,0.479611016922,0.87748120917,"(1.7976931348623157e+308, 0.0, 0.0, 0.0, 1.7976931348623157e+308, 0.0, 0.0, 0.0, 0.05)",0.0,0.0,0.00767944870878,"(1.7976931348623157e+308, 0.0, 0.0, 0.0, 1.7976931348623157e+308, 0.0, 0.0, 0.0, 0.05)",0.0,0.0,0.0,"(0.0, 0.0, 0.0, 0.0, 0.0, 0.0, 0.0, 0.0, 0.0)"
2019/10/07/19:21:23.598259,8014,1570443683,597900120,gyro_link,0.0,0.0,0.479228097873,0.877690395418,"(1.7976931348623157e+308, 0.0, 0.0, 0.0, 1.7976931348623157e+308, 0.0, 0.0, 0.0, 0.05)",0.0,0.0,-0.0219911485751,"(1.7976931348623157e+308, 0.0, 0.0, 0.0, 1.7976931348623157e+308, 0.0, 0.0, 0.0, 0.05)",0.0,0.0,0.0,"(0.0, 0.0, 0.0, 0.0, 0.0, 0.0, 0.0, 0.0, 0.0)"
2019/10/07/19:21:23.620575,8015,1570443683,620125737,gyro_link,0.0,0.0,0.479074904703,0.877774023131,"(1.7976931348623157e+308, 0.0, 0.0, 0.0, 1.7976931348623157e+308, 0.0, 0.0, 0.0, 0.05)",0.0,0.0,-0.0146607657168,"(1.7976931348623157e+308, 0.0, 0.0, 0.0, 1.7976931348623157e+308, 0.0, 0.0, 0.0, 0.05)",0.0,0.0,0.0,"(0.0, 0.0, 0.0, 0.0, 0.0, 0.0, 0.0, 0.0, 0.0)"
2019/10/07/19:21:23.680043,8016,1570443683,679801926,gyro_link,0.0,0.0,0.479304688984,0.877648571535,"(1.7976931348623157e+308, 0.0, 0.0, 0.0, 1.7976931348623157e+308, 0.0, 0.0, 0.0, 0.05)",0.0,0.0,0.0111701072128,"(1.7976931348623157e+308, 0.0, 0.0, 0.0, 1.7976931348623157e+308, 0.0, 0.0, 0.0, 0.05)",0.0,0.0,0.0,"(0.0, 0.0, 0.0, 0.0, 0.0, 0.0, 0.0, 0.0, 0.0)"
2019/10/07/19:21:23.739984,8017,1570443683,739526968,gyro_link,0.0,0.0,0.479687589777,0.877439351872,"(1.7976931348623157e+308, 0.0, 0.0, 0.0, 1.7976931348623157e+308, 0.0, 0.0, 0.0, 0.05)",0.0,0.0,0.0164060949687,"(1.7976931348623157e+308, 0.0, 0.0, 0.0, 1.7976931348623157e+308, 0.0, 0.0, 0.0, 0.05)",0.0,0.0,0.0,"(0.0, 0.0, 0.0, 0.0, 0.0, 0.0, 0.0, 0.0, 0.0)"
2019/10/07/19:21:23.799711,8018,1570443683,799339376,gyro_link,0.0,0.0,0.479074904703,0.877774023131,"(1.7976931348623157e+308, 0.0, 0.0, 0.0, 1.7976931348623157e+308, 0.0, 0.0, 0.0, 0.05)",0.0,0.0,-0.0256563400043,"(1.7976931348623157e+308, 0.0, 0.0, 0.0, 1.7976931348623157e+308, 0.0, 0.0, 0.0, 0.05)",0.0,0.0,0.0,"(0.0, 0.0, 0.0, 0.0, 0.0, 0.0, 0.0, 0.0, 0.0)"
2019/10/07/19:21:23.859779,8019,1570443683,859528939,gyro_link,0.0,0.0,0.478845087586,0.877899414566,"(1.7976931348623157e+308, 0.0, 0.0, 0.0, 1.7976931348623157e+308, 0.0, 0.0, 0.0, 0.05)",0.0,0.0,-0.00383972435439,"(1.7976931348623157e+308, 0.0, 0.0, 0.0, 1.7976931348623157e+308, 0.0, 0.0, 0.0, 0.05)",0.0,0.0,0.0,"(0.0, 0.0, 0.0, 0.0, 0.0, 0.0, 0.0, 0.0, 0.0)"
2019/10/07/19:21:23.919970,8020,1570443683,919469874,gyro_link,0.0,0.0,0.479151503112,0.877732212617,"(1.7976931348623157e+308, 0.0, 0.0, 0.0, 1.7976931348623157e+308, 0.0, 0.0, 0.0, 0.05)",0.0,0.0,0.0132645023152,"(1.7976931348623157e+308, 0.0, 0.0, 0.0, 1.7976931348623157e+308, 0.0, 0.0, 0.0, 0.05)",0.0,0.0,0.0,"(0.0, 0.0, 0.0, 0.0, 0.0, 0.0, 0.0, 0.0, 0.0)"
2019/10/07/19:21:23.979901,8021,1570443683,979418998,gyro_link,0.0,0.0,0.478998302645,0.877815826961,"(1.7976931348623157e+308, 0.0, 0.0, 0.0, 1.7976931348623157e+308, 0.0, 0.0, 0.0, 0.05)",0.0,0.0,-0.0239110107523,"(1.7976931348623157e+308, 0.0, 0.0, 0.0, 1.7976931348623157e+308, 0.0, 0.0, 0.0, 0.05)",0.0,0.0,0.0,"(0.0, 0.0, 0.0, 0.0, 0.0, 0.0, 0.0, 0.0, 0.0)"
2019/10/07/19:21:24.039857,8022,1570443684,39309199,gyro_link,0.0,0.0,0.478691857941,0.877982975428,"(1.7976931348623157e+308, 0.0, 0.0, 0.0, 1.7976931348623157e+308, 0.0, 0.0, 0.0, 0.05)",0.0,0.0,0.00349065850399,"(1.7976931348623157e+308, 0.0, 0.0, 0.0, 1.7976931348623157e+308, 0.0, 0.0, 0.0, 0.05)",0.0,0.0,0.0,"(0.0, 0.0, 0.0, 0.0, 0.0, 0.0, 0.0, 0.0, 0.0)"
2019/10/07/19:21:24.099683,8023,1570443684,99282797,gyro_link,0.0,0.0,0.479151503112,0.877732212617,"(1.7976931348623157e+308, 0.0, 0.0, 0.0, 1.7976931348623157e+308, 0.0, 0.0, 0.0, 0.05)",0.0,0.0,0.0340339204139,"(1.7976931348623157e+308, 0.0, 0.0, 0.0, 1.7976931348623157e+308, 0.0, 0.0, 0.0, 0.05)",0.0,0.0,0.0,"(0.0, 0.0, 0.0, 0.0, 0.0, 0.0, 0.0, 0.0, 0.0)"
2019/10/07/19:21:24.159738,8024,1570443684,159097331,gyro_link,0.0,0.0,0.479228097873,0.877690395418,"(1.7976931348623157e+308, 0.0, 0.0, 0.0, 1.7976931348623157e+308, 0.0, 0.0, 0.0, 0.05)",0.0,0.0,-0.0235619449019,"(1.7976931348623157e+308, 0.0, 0.0, 0.0, 1.7976931348623157e+308, 0.0, 0.0, 0.0, 0.05)",0.0,0.0,0.0,"(0.0, 0.0, 0.0, 0.0, 0.0, 0.0, 0.0, 0.0, 0.0)"
2019/10/07/19:21:24.219498,8025,1570443684,218899453,gyro_link,0.0,0.0,0.478615237649,0.87802474583,"(1.7976931348623157e+308, 0.0, 0.0, 0.0, 1.7976931348623157e+308, 0.0, 0.0, 0.0, 0.05)",0.0,0.0,-0.0174532925199,"(1.7976931348623157e+308, 0.0, 0.0, 0.0, 1.7976931348623157e+308, 0.0, 0.0, 0.0, 0.05)",0.0,0.0,0.0,"(0.0, 0.0, 0.0, 0.0, 0.0, 0.0, 0.0, 0.0, 0.0)"
2019/10/07/19:21:24.279550,8026,1570443684,279111189,gyro_link,0.0,0.0,0.478691857941,0.877982975428,"(1.7976931348623157e+308, 0.0, 0.0, 0.0, 1.7976931348623157e+308, 0.0, 0.0, 0.0, 0.05)",0.0,0.0,0.0319395253115,"(1.7976931348623157e+308, 0.0, 0.0, 0.0, 1.7976931348623157e+308, 0.0, 0.0, 0.0, 0.05)",0.0,0.0,0.0,"(0.0, 0.0, 0.0, 0.0, 0.0, 0.0, 0.0, 0.0, 0.0)"
2019/10/07/19:21:24.338046,8027,1570443684,337668937,gyro_link,0.0,0.0,0.479228097873,0.877690395418,"(1.7976931348623157e+308, 0.0, 0.0, 0.0, 1.7976931348623157e+308, 0.0, 0.0, 0.0, 0.05)",0.0,0.0,0.00209439510239,"(1.7976931348623157e+308, 0.0, 0.0, 0.0, 1.7976931348623157e+308, 0.0, 0.0, 0.0, 0.05)",0.0,0.0,0.0,"(0.0, 0.0, 0.0, 0.0, 0.0, 0.0, 0.0, 0.0, 0.0)"
2019/10/07/19:21:24.395630,8028,1570443684,395273740,gyro_link,0.0,0.0,0.478385354909,0.878150016915,"(1.7976931348623157e+308, 0.0, 0.0, 0.0, 1.7976931348623157e+308, 0.0, 0.0, 0.0, 0.05)",0.0,0.0,-0.0296705972839,"(1.7976931348623157e+308, 0.0, 0.0, 0.0, 1.7976931348623157e+308, 0.0, 0.0, 0.0, 0.05)",0.0,0.0,0.0,"(0.0, 0.0, 0.0, 0.0, 0.0, 0.0, 0.0, 0.0, 0.0)"
2019/10/07/19:21:24.419132,8029,1570443684,418625105,gyro_link,0.0,0.0,0.478232081533,0.878233497535,"(1.7976931348623157e+308, 0.0, 0.0, 0.0, 1.7976931348623157e+308, 0.0, 0.0, 0.0, 0.05)",0.0,0.0,-0.0174532925199,"(1.7976931348623157e+308, 0.0, 0.0, 0.0, 1.7976931348623157e+308, 0.0, 0.0, 0.0, 0.05)",0.0,0.0,0.0,"(0.0, 0.0, 0.0, 0.0, 0.0, 0.0, 0.0, 0.0, 0.0)"
2019/10/07/19:21:24.477998,8030,1570443684,477520643,gyro_link,0.0,0.0,0.478232081533,0.878233497535,"(1.7976931348623157e+308, 0.0, 0.0, 0.0, 1.7976931348623157e+308, 0.0, 0.0, 0.0, 0.05)",0.0,0.0,0.0312413936107,"(1.7976931348623157e+308, 0.0, 0.0, 0.0, 1.7976931348623157e+308, 0.0, 0.0, 0.0, 0.05)",0.0,0.0,0.0,"(0.0, 0.0, 0.0, 0.0, 0.0, 0.0, 0.0, 0.0, 0.0)"
2019/10/07/19:21:24.535564,8031,1570443684,535200869,gyro_link,0.0,0.0,0.478998302645,0.877815826961,"(1.7976931348623157e+308, 0.0, 0.0, 0.0, 1.7976931348623157e+308, 0.0, 0.0, 0.0, 0.05)",0.0,0.0,-0.0115191730632,"(1.7976931348623157e+308, 0.0, 0.0, 0.0, 1.7976931348623157e+308, 0.0, 0.0, 0.0, 0.05)",0.0,0.0,0.0,"(0.0, 0.0, 0.0, 0.0, 0.0, 0.0, 0.0, 0.0, 0.0)"
2019/10/07/19:21:24.557884,8032,1570443684,557308274,gyro_link,0.0,0.0,0.478768474586,0.87794119834,"(1.7976931348623157e+308, 0.0, 0.0, 0.0, 1.7976931348623157e+308, 0.0, 0.0, 0.0, 0.05)",0.0,0.0,-0.0328121899375,"(1.7976931348623157e+308, 0.0, 0.0, 0.0, 1.7976931348623157e+308, 0.0, 0.0, 0.0, 0.05)",0.0,0.0,0.0,"(0.0, 0.0, 0.0, 0.0, 0.0, 0.0, 0.0, 0.0, 0.0)"
2019/10/07/19:21:24.615653,8033,1570443684,615094210,gyro_link,0.0,0.0,0.478002144155,0.878358668303,"(1.7976931348623157e+308, 0.0, 0.0, 0.0, 1.7976931348623157e+308, 0.0, 0.0, 0.0, 0.05)",0.0,0.0,-0.0261799387799,"(1.7976931348623157e+308, 0.0, 0.0, 0.0, 1.7976931348623157e+308, 0.0, 0.0, 0.0, 0.05)",0.0,0.0,0.0,"(0.0, 0.0, 0.0, 0.0, 0.0, 0.0, 0.0, 0.0, 0.0)"
2019/10/07/19:21:24.637303,8034,1570443684,636943888,gyro_link,0.0,0.0,0.477772174015,0.87848377887,"(1.7976931348623157e+308, 0.0, 0.0, 0.0, 1.7976931348623157e+308, 0.0, 0.0, 0.0, 0.05)",0.0,0.0,-0.00767944870878,"(1.7976931348623157e+308, 0.0, 0.0, 0.0, 1.7976931348623157e+308, 0.0, 0.0, 0.0, 0.05)",0.0,0.0,0.0,"(0.0, 0.0, 0.0, 0.0, 0.0, 0.0, 0.0, 0.0, 0.0)"
2019/10/07/19:21:24.695484,8035,1570443684,694957823,gyro_link,0.0,0.0,0.478538613714,0.878066509545,"(1.7976931348623157e+308, 0.0, 0.0, 0.0, 1.7976931348623157e+308, 0.0, 0.0, 0.0, 0.05)",0.0,0.0,0.0383972435439,"(1.7976931348623157e+308, 0.0, 0.0, 0.0, 1.7976931348623157e+308, 0.0, 0.0, 0.0, 0.05)",0.0,0.0,0.0,"(0.0, 0.0, 0.0, 0.0, 0.0, 0.0, 0.0, 0.0, 0.0)"
2019/10/07/19:21:24.717237,8036,1570443684,716853124,gyro_link,0.0,0.0,0.478691857941,0.877982975428,"(1.7976931348623157e+308, 0.0, 0.0, 0.0, 1.7976931348623157e+308, 0.0, 0.0, 0.0, 0.05)",0.0,0.0,0.0183259571459,"(1.7976931348623157e+308, 0.0, 0.0, 0.0, 1.7976931348623157e+308, 0.0, 0.0, 0.0, 0.05)",0.0,0.0,0.0,"(0.0, 0.0, 0.0, 0.0, 0.0, 0.0, 0.0, 0.0, 0.0)"
2019/10/07/19:21:24.775070,8037,1570443684,774757221,gyro_link,0.0,0.0,0.477925491081,0.878400378515,"(1.7976931348623157e+308, 0.0, 0.0, 0.0, 1.7976931348623157e+308, 0.0, 0.0, 0.0, 0.05)",0.0,0.0,-0.0396189740203,"(1.7976931348623157e+308, 0.0, 0.0, 0.0, 1.7976931348623157e+308, 0.0, 0.0, 0.0, 0.05)",0.0,0.0,0.0,"(0.0, 0.0, 0.0, 0.0, 0.0, 0.0, 0.0, 0.0, 0.0)"
2019/10/07/19:21:24.796760,8038,1570443684,796559798,gyro_link,0.0,0.0,0.477695510024,0.878525469012,"(1.7976931348623157e+308, 0.0, 0.0, 0.0, 1.7976931348623157e+308, 0.0, 0.0, 0.0, 0.05)",0.0,0.0,-0.0221656815003,"(1.7976931348623157e+308, 0.0, 0.0, 0.0, 1.7976931348623157e+308, 0.0, 0.0, 0.0, 0.05)",0.0,0.0,0.0,"(0.0, 0.0, 0.0, 0.0, 0.0, 0.0, 0.0, 0.0, 0.0)"
2019/10/07/19:21:24.856944,8039,1570443684,856564733,gyro_link,0.0,0.0,0.477618842395,0.878567152464,"(1.7976931348623157e+308, 0.0, 0.0, 0.0, 1.7976931348623157e+308, 0.0, 0.0, 0.0, 0.05)",0.0,0.0,0.0275762021815,"(1.7976931348623157e+308, 0.0, 0.0, 0.0, 1.7976931348623157e+308, 0.0, 0.0, 0.0, 0.05)",0.0,0.0,0.0,"(0.0, 0.0, 0.0, 0.0, 0.0, 0.0, 0.0, 0.0, 0.0)"
2019/10/07/19:21:24.914885,8040,1570443684,914509148,gyro_link,0.0,0.0,0.478768474586,0.87794119834,"(1.7976931348623157e+308, 0.0, 0.0, 0.0, 1.7976931348623157e+308, 0.0, 0.0, 0.0, 0.05)",0.0,0.0,0.0165806278939,"(1.7976931348623157e+308, 0.0, 0.0, 0.0, 1.7976931348623157e+308, 0.0, 0.0, 0.0, 0.05)",0.0,0.0,0.0,"(0.0, 0.0, 0.0, 0.0, 0.0, 0.0, 0.0, 0.0, 0.0)"
2019/10/07/19:21:24.936852,8041,1570443684,936396035,gyro_link,0.0,0.0,0.478691857941,0.877982975428,"(1.7976931348623157e+308, 0.0, 0.0, 0.0, 1.7976931348623157e+308, 0.0, 0.0, 0.0, 0.05)",0.0,0.0,-0.0178023583703,"(1.7976931348623157e+308, 0.0, 0.0, 0.0, 1.7976931348623157e+308, 0.0, 0.0, 0.0, 0.05)",0.0,0.0,0.0,"(0.0, 0.0, 0.0, 0.0, 0.0, 0.0, 0.0, 0.0, 0.0)"
2019/10/07/19:21:24.994668,8042,1570443684,994214516,gyro_link,0.0,0.0,0.477312135513,0.878733819363,"(1.7976931348623157e+308, 0.0, 0.0, 0.0, 1.7976931348623157e+308, 0.0, 0.0, 0.0, 0.05)",0.0,0.0,-0.0244346095279,"(1.7976931348623157e+308, 0.0, 0.0, 0.0, 1.7976931348623157e+308, 0.0, 0.0, 0.0, 0.05)",0.0,0.0,0.0,"(0.0, 0.0, 0.0, 0.0, 0.0, 0.0, 0.0, 0.0, 0.0)"
2019/10/07/19:21:25.016509,8043,1570443685,16233158,gyro_link,0.0,0.0,0.47715876026,0.878817112662,"(1.7976931348623157e+308, 0.0, 0.0, 0.0, 1.7976931348623157e+308, 0.0, 0.0, 0.0, 0.05)",0.0,0.0,-0.0188495559215,"(1.7976931348623157e+308, 0.0, 0.0, 0.0, 1.7976931348623157e+308, 0.0, 0.0, 0.0, 0.05)",0.0,0.0,0.0,"(0.0, 0.0, 0.0, 0.0, 0.0, 0.0, 0.0, 0.0, 0.0)"
2019/10/07/19:21:25.076933,8044,1570443685,76383698,gyro_link,0.0,0.0,0.477772174015,0.87848377887,"(1.7976931348623157e+308, 0.0, 0.0, 0.0, 1.7976931348623157e+308, 0.0, 0.0, 0.0, 0.05)",0.0,0.0,0.0460766922527,"(1.7976931348623157e+308, 0.0, 0.0, 0.0, 1.7976931348623157e+308, 0.0, 0.0, 0.0, 0.05)",0.0,0.0,0.0,"(0.0, 0.0, 0.0, 0.0, 0.0, 0.0, 0.0, 0.0, 0.0)"
2019/10/07/19:21:25.136492,8045,1570443685,136109760,gyro_link,0.0,0.0,0.477695510024,0.878525469012,"(1.7976931348623157e+308, 0.0, 0.0, 0.0, 1.7976931348623157e+308, 0.0, 0.0, 0.0, 0.05)",0.0,0.0,-0.0352556508903,"(1.7976931348623157e+308, 0.0, 0.0, 0.0, 1.7976931348623157e+308, 0.0, 0.0, 0.0, 0.05)",0.0,0.0,0.0,"(0.0, 0.0, 0.0, 0.0, 0.0, 0.0, 0.0, 0.0, 0.0)"
2019/10/07/19:21:25.196711,8046,1570443685,196173976,gyro_link,0.0,0.0,0.476775258546,0.879025228784,"(1.7976931348623157e+308, 0.0, 0.0, 0.0, 1.7976931348623157e+308, 0.0, 0.0, 0.0, 0.05)",0.0,0.0,-0.0291469985083,"(1.7976931348623157e+308, 0.0, 0.0, 0.0, 1.7976931348623157e+308, 0.0, 0.0, 0.0, 0.05)",0.0,0.0,0.0,"(0.0, 0.0, 0.0, 0.0, 0.0, 0.0, 0.0, 0.0, 0.0)"
2019/10/07/19:21:25.256186,8047,1570443685,255741868,gyro_link,0.0,0.0,0.477312135513,0.878733819363,"(1.7976931348623157e+308, 0.0, 0.0, 0.0, 1.7976931348623157e+308, 0.0, 0.0, 0.0, 0.05)",0.0,0.0,0.0535816080362,"(1.7976931348623157e+308, 0.0, 0.0, 0.0, 1.7976931348623157e+308, 0.0, 0.0, 0.0, 0.05)",0.0,0.0,0.0,"(0.0, 0.0, 0.0, 0.0, 0.0, 0.0, 0.0, 0.0, 0.0)"
2019/10/07/19:21:25.316420,8048,1570443685,315938012,gyro_link,0.0,0.0,0.478078793588,0.878316951403,"(1.7976931348623157e+308, 0.0, 0.0, 0.0, 1.7976931348623157e+308, 0.0, 0.0, 0.0, 0.05)",0.0,0.0,-0.00959931088597,"(1.7976931348623157e+308, 0.0, 0.0, 0.0, 1.7976931348623157e+308, 0.0, 0.0, 0.0, 0.05)",0.0,0.0,0.0,"(0.0, 0.0, 0.0, 0.0, 0.0, 0.0, 0.0, 0.0, 0.0)"
2019/10/07/19:21:25.375884,8049,1570443685,375486184,gyro_link,0.0,0.0,0.476621832441,0.879108428375,"(1.7976931348623157e+308, 0.0, 0.0, 0.0, 1.7976931348623157e+308, 0.0, 0.0, 0.0, 0.05)",0.0,0.0,-0.0406661715715,"(1.7976931348623157e+308, 0.0, 0.0, 0.0, 1.7976931348623157e+308, 0.0, 0.0, 0.0, 0.05)",0.0,0.0,0.0,"(0.0, 0.0, 0.0, 0.0, 0.0, 0.0, 0.0, 0.0, 0.0)"
2019/10/07/19:21:25.435939,8050,1570443685,435608709,gyro_link,0.0,0.0,0.476468391817,0.879191601188,"(1.7976931348623157e+308, 0.0, 0.0, 0.0, 1.7976931348623157e+308, 0.0, 0.0, 0.0, 0.05)",0.0,0.0,0.0244346095279,"(1.7976931348623157e+308, 0.0, 0.0, 0.0, 1.7976931348623157e+308, 0.0, 0.0, 0.0, 0.05)",0.0,0.0,0.0,"(0.0, 0.0, 0.0, 0.0, 0.0, 0.0, 0.0, 0.0, 0.0)"
2019/10/07/19:21:25.495943,8051,1570443685,495450329,gyro_link,0.0,0.0,0.477618842395,0.878567152464,"(1.7976931348623157e+308, 0.0, 0.0, 0.0, 1.7976931348623157e+308, 0.0, 0.0, 0.0, 0.05)",0.0,0.0,0.000698131700798,"(1.7976931348623157e+308, 0.0, 0.0, 0.0, 1.7976931348623157e+308, 0.0, 0.0, 0.0, 0.05)",0.0,0.0,0.0,"(0.0, 0.0, 0.0, 0.0, 0.0, 0.0, 0.0, 0.0, 0.0)"
2019/10/07/19:21:25.554959,8052,1570443685,554283966,gyro_link,0.0,0.0,0.476621832441,0.879108428375,"(1.7976931348623157e+308, 0.0, 0.0, 0.0, 1.7976931348623157e+308, 0.0, 0.0, 0.0, 0.05)",0.0,0.0,-0.0479965544298,"(1.7976931348623157e+308, 0.0, 0.0, 0.0, 1.7976931348623157e+308, 0.0, 0.0, 0.0, 0.05)",0.0,0.0,0.0,"(0.0, 0.0, 0.0, 0.0, 0.0, 0.0, 0.0, 0.0, 0.0)"
2019/10/07/19:21:25.575514,8053,1570443685,575000003,gyro_link,0.0,0.0,0.476161467031,0.879357866466,"(1.7976931348623157e+308, 0.0, 0.0, 0.0, 1.7976931348623157e+308, 0.0, 0.0, 0.0, 0.05)",0.0,0.0,-0.0340339204139,"(1.7976931348623157e+308, 0.0, 0.0, 0.0, 1.7976931348623157e+308, 0.0, 0.0, 0.0, 0.05)",0.0,0.0,0.0,"(0.0, 0.0, 0.0, 0.0, 0.0, 0.0, 0.0, 0.0, 0.0)"
2019/10/07/19:21:25.634300,8054,1570443685,633835781,gyro_link,0.0,0.0,0.476698547309,0.879066831927,"(1.7976931348623157e+308, 0.0, 0.0, 0.0, 1.7976931348623157e+308, 0.0, 0.0, 0.0, 0.05)",0.0,0.0,0.0610865238198,"(1.7976931348623157e+308, 0.0, 0.0, 0.0, 1.7976931348623157e+308, 0.0, 0.0, 0.0, 0.05)",0.0,0.0,0.0,"(0.0, 0.0, 0.0, 0.0, 0.0, 0.0, 0.0, 0.0, 0.0)"
2019/10/07/19:21:25.692955,8055,1570443685,692054493,gyro_link,0.0,0.0,0.477465496226,0.878650499296,"(1.7976931348623157e+308, 0.0, 0.0, 0.0, 1.7976931348623157e+308, 0.0, 0.0, 0.0, 0.05)",0.0,0.0,-0.0301941960595,"(1.7976931348623157e+308, 0.0, 0.0, 0.0, 1.7976931348623157e+308, 0.0, 0.0, 0.0, 0.05)",0.0,0.0,0.0,"(0.0, 0.0, 0.0, 0.0, 0.0, 0.0, 0.0, 0.0, 0.0)"
2019/10/07/19:21:25.715825,8056,1570443685,715300929,gyro_link,0.0,0.0,0.477005370471,0.878900379191,"(1.7976931348623157e+308, 0.0, 0.0, 0.0, 1.7976931348623157e+308, 0.0, 0.0, 0.0, 0.05)",0.0,0.0,-0.066497044501,"(1.7976931348623157e+308, 0.0, 0.0, 0.0, 1.7976931348623157e+308, 0.0, 0.0, 0.0, 0.05)",0.0,0.0,0.0,"(0.0, 0.0, 0.0, 0.0, 0.0, 0.0, 0.0, 0.0, 0.0)"
2019/10/07/19:21:25.774275,8057,1570443685,773609377,gyro_link,0.0,0.0,0.475777729464,0.879565547385,"(1.7976931348623157e+308, 0.0, 0.0, 0.0, 1.7976931348623157e+308, 0.0, 0.0, 0.0, 0.05)",0.0,0.0,-0.0373500459927,"(1.7976931348623157e+308, 0.0, 0.0, 0.0, 1.7976931348623157e+308, 0.0, 0.0, 0.0, 0.05)",0.0,0.0,0.0,"(0.0, 0.0, 0.0, 0.0, 0.0, 0.0, 0.0, 0.0, 0.0)"
2019/10/07/19:21:25.832310,8058,1570443685,831716111,gyro_link,0.0,0.0,0.476238203668,0.879316310191,"(1.7976931348623157e+308, 0.0, 0.0, 0.0, 1.7976931348623157e+308, 0.0, 0.0, 0.0, 0.05)",0.0,0.0,0.0596902604182,"(1.7976931348623157e+308, 0.0, 0.0, 0.0, 1.7976931348623157e+308, 0.0, 0.0, 0.0, 0.05)",0.0,0.0,0.0,"(0.0, 0.0, 0.0, 0.0, 0.0, 0.0, 0.0, 0.0, 0.0)"
2019/10/07/19:21:25.854121,8059,1570443685,853663138,gyro_link,0.0,0.0,0.476775258546,0.879025228784,"(1.7976931348623157e+308, 0.0, 0.0, 0.0, 1.7976931348623157e+308, 0.0, 0.0, 0.0, 0.05)",0.0,0.0,0.0614355896702,"(1.7976931348623157e+308, 0.0, 0.0, 0.0, 1.7976931348623157e+308, 0.0, 0.0, 0.0, 0.05)",0.0,0.0,0.0,"(0.0, 0.0, 0.0, 0.0, 0.0, 0.0, 0.0, 0.0, 0.0)"
2019/10/07/19:21:25.912138,8060,1570443685,911645736,gyro_link,0.0,0.0,0.476545113943,0.879150018129,"(1.7976931348623157e+308, 0.0, 0.0, 0.0, 1.7976931348623157e+308, 0.0, 0.0, 0.0, 0.05)",0.0,0.0,-0.0593411945678,"(1.7976931348623157e+308, 0.0, 0.0, 0.0, 1.7976931348623157e+308, 0.0, 0.0, 0.0, 0.05)",0.0,0.0,0.0,"(0.0, 0.0, 0.0, 0.0, 0.0, 0.0, 0.0, 0.0, 0.0)"
2019/10/07/19:21:25.933897,8061,1570443685,933522524,gyro_link,0.0,0.0,0.475700971078,0.879607063475,"(1.7976931348623157e+308, 0.0, 0.0, 0.0, 1.7976931348623157e+308, 0.0, 0.0, 0.0, 0.05)",0.0,0.0,-0.072605696883,"(1.7976931348623157e+308, 0.0, 0.0, 0.0, 1.7976931348623157e+308, 0.0, 0.0, 0.0, 0.05)",0.0,0.0,0.0,"(0.0, 0.0, 0.0, 0.0, 0.0, 0.0, 0.0, 0.0, 0.0)"
2019/10/07/19:21:25.992152,8062,1570443685,991503958,gyro_link,0.0,0.0,0.475317124823,0.879814543441,"(1.7976931348623157e+308, 0.0, 0.0, 0.0, 1.7976931348623157e+308, 0.0, 0.0, 0.0, 0.05)",0.0,0.0,0.0247836753783,"(1.7976931348623157e+308, 0.0, 0.0, 0.0, 1.7976931348623157e+308, 0.0, 0.0, 0.0, 0.05)",0.0,0.0,0.0,"(0.0, 0.0, 0.0, 0.0, 0.0, 0.0, 0.0, 0.0, 0.0)"
2019/10/07/19:21:26.014231,8063,1570443686,13706156,gyro_link,0.0,0.0,0.475700971078,0.879607063475,"(1.7976931348623157e+308, 0.0, 0.0, 0.0, 1.7976931348623157e+308, 0.0, 0.0, 0.0, 0.05)",0.0,0.0,0.0548033385126,"(1.7976931348623157e+308, 0.0, 0.0, 0.0, 1.7976931348623157e+308, 0.0, 0.0, 0.0, 0.05)",0.0,0.0,0.0,"(0.0, 0.0, 0.0, 0.0, 0.0, 0.0, 0.0, 0.0, 0.0)"
2019/10/07/19:21:26.071589,8064,1570443686,71245624,gyro_link,0.0,0.0,0.476698547309,0.879066831927,"(1.7976931348623157e+308, 0.0, 0.0, 0.0, 1.7976931348623157e+308, 0.0, 0.0, 0.0, 0.05)",0.0,0.0,-0.0242600766027,"(1.7976931348623157e+308, 0.0, 0.0, 0.0, 1.7976931348623157e+308, 0.0, 0.0, 0.0, 0.05)",0.0,0.0,0.0,"(0.0, 0.0, 0.0, 0.0, 0.0, 0.0, 0.0, 0.0, 0.0)"
2019/10/07/19:21:26.093862,8065,1570443686,93475675,gyro_link,0.0,0.0,0.476238203668,0.879316310191,"(1.7976931348623157e+308, 0.0, 0.0, 0.0, 1.7976931348623157e+308, 0.0, 0.0, 0.0, 0.05)",0.0,0.0,-0.0617846555206,"(1.7976931348623157e+308, 0.0, 0.0, 0.0, 1.7976931348623157e+308, 0.0, 0.0, 0.0, 0.05)",0.0,0.0,0.0,"(0.0, 0.0, 0.0, 0.0, 0.0, 0.0, 0.0, 0.0, 0.0)"
2019/10/07/19:21:26.153714,8066,1570443686,153263606,gyro_link,0.0,0.0,0.474779588052,0.880104733977,"(1.7976931348623157e+308, 0.0, 0.0, 0.0, 1.7976931348623157e+308, 0.0, 0.0, 0.0, 0.05)",0.0,0.0,-0.0280998009571,"(1.7976931348623157e+308, 0.0, 0.0, 0.0, 1.7976931348623157e+308, 0.0, 0.0, 0.0, 0.05)",0.0,0.0,0.0,"(0.0, 0.0, 0.0, 0.0, 0.0, 0.0, 0.0, 0.0, 0.0)"
2019/10/07/19:21:26.213633,8067,1570443686,213187852,gyro_link,0.0,0.0,0.47562420907,0.879648572867,"(1.7976931348623157e+308, 0.0, 0.0, 0.0, 1.7976931348623157e+308, 0.0, 0.0, 0.0, 0.05)",0.0,0.0,0.0720820981074,"(1.7976931348623157e+308, 0.0, 0.0, 0.0, 1.7976931348623157e+308, 0.0, 0.0, 0.0, 0.05)",0.0,0.0,0.0,"(0.0, 0.0, 0.0, 0.0, 0.0, 0.0, 0.0, 0.0, 0.0)"
2019/10/07/19:21:26.273529,8068,1570443686,272993243,gyro_link,0.0,0.0,0.476084726767,0.879399416044,"(1.7976931348623157e+308, 0.0, 0.0, 0.0, 1.7976931348623157e+308, 0.0, 0.0, 0.0, 0.05)",0.0,0.0,-0.0486946861306,"(1.7976931348623157e+308, 0.0, 0.0, 0.0, 1.7976931348623157e+308, 0.0, 0.0, 0.0, 0.05)",0.0,0.0,0.0,"(0.0, 0.0, 0.0, 0.0, 0.0, 0.0, 0.0, 0.0, 0.0)"
2019/10/07/19:21:26.333325,8069,1570443686,332839606,gyro_link,0.0,0.0,0.474702782617,0.880146162961,"(1.7976931348623157e+308, 0.0, 0.0, 0.0, 1.7976931348623157e+308, 0.0, 0.0, 0.0, 0.05)",0.0,0.0,-0.0539306738866,"(1.7976931348623157e+308, 0.0, 0.0, 0.0, 1.7976931348623157e+308, 0.0, 0.0, 0.0, 0.05)",0.0,0.0,0.0,"(0.0, 0.0, 0.0, 0.0, 0.0, 0.0, 0.0, 0.0, 0.0)"
2019/10/07/19:21:26.393284,8070,1570443686,392879340,gyro_link,0.0,0.0,0.475163560978,0.879897488528,"(1.7976931348623157e+308, 0.0, 0.0, 0.0, 1.7976931348623157e+308, 0.0, 0.0, 0.0, 0.05)",0.0,0.0,0.069115038379,"(1.7976931348623157e+308, 0.0, 0.0, 0.0, 1.7976931348623157e+308, 0.0, 0.0, 0.0, 0.05)",0.0,0.0,0.0,"(0.0, 0.0, 0.0, 0.0, 0.0, 0.0, 0.0, 0.0, 0.0)"
2019/10/07/19:21:26.453024,8071,1570443686,452544058,gyro_link,0.0,0.0,0.476238203668,0.879316310191,"(1.7976931348623157e+308, 0.0, 0.0, 0.0, 1.7976931348623157e+308, 0.0, 0.0, 0.0, 0.05)",0.0,0.0,0.00959931088597,"(1.7976931348623157e+308, 0.0, 0.0, 0.0, 1.7976931348623157e+308, 0.0, 0.0, 0.0, 0.05)",0.0,0.0,0.0,"(0.0, 0.0, 0.0, 0.0, 0.0, 0.0, 0.0, 0.0, 0.0)"
2019/10/07/19:21:26.512678,8072,1570443686,512327996,gyro_link,0.0,0.0,0.474702782617,0.880146162961,"(1.7976931348623157e+308, 0.0, 0.0, 0.0, 1.7976931348623157e+308, 0.0, 0.0, 0.0, 0.05)",0.0,0.0,-0.0570722665402,"(1.7976931348623157e+308, 0.0, 0.0, 0.0, 1.7976931348623157e+308, 0.0, 0.0, 0.0, 0.05)",0.0,0.0,0.0,"(0.0, 0.0, 0.0, 0.0, 0.0, 0.0, 0.0, 0.0, 0.0)"
2019/10/07/19:21:26.572610,8073,1570443686,572343873,gyro_link,0.0,0.0,0.474241874114,0.880394596097,"(1.7976931348623157e+308, 0.0, 0.0, 0.0, 1.7976931348623157e+308, 0.0, 0.0, 0.0, 0.05)",0.0,0.0,0.0294960643587,"(1.7976931348623157e+308, 0.0, 0.0, 0.0, 1.7976931348623157e+308, 0.0, 0.0, 0.0, 0.05)",0.0,0.0,0.0,"(0.0, 0.0, 0.0, 0.0, 0.0, 0.0, 0.0, 0.0, 0.0)"
2019/10/07/19:21:26.632520,8074,1570443686,632221277,gyro_link,0.0,0.0,0.475700971078,0.879607063475,"(1.7976931348623157e+308, 0.0, 0.0, 0.0, 1.7976931348623157e+308, 0.0, 0.0, 0.0, 0.05)",0.0,0.0,0.0143116998664,"(1.7976931348623157e+308, 0.0, 0.0, 0.0, 1.7976931348623157e+308, 0.0, 0.0, 0.0, 0.05)",0.0,0.0,0.0,"(0.0, 0.0, 0.0, 0.0, 0.0, 0.0, 0.0, 0.0, 0.0)"
2019/10/07/19:21:26.692574,8075,1570443686,691878298,gyro_link,0.0,0.0,0.474395524734,0.880311811867,"(1.7976931348623157e+308, 0.0, 0.0, 0.0, 1.7976931348623157e+308, 0.0, 0.0, 0.0, 0.05)",0.0,0.0,-0.072605696883,"(1.7976931348623157e+308, 0.0, 0.0, 0.0, 1.7976931348623157e+308, 0.0, 0.0, 0.0, 0.05)",0.0,0.0,0.0,"(0.0, 0.0, 0.0, 0.0, 0.0, 0.0, 0.0, 0.0, 0.0)"
2019/10/07/19:21:26.752295,8076,1570443686,751890869,gyro_link,0.0,0.0,0.473857684371,0.880601439337,"(1.7976931348623157e+308, 0.0, 0.0, 0.0, 1.7976931348623157e+308, 0.0, 0.0, 0.0, 0.05)",0.0,0.0,0.0415388361975,"(1.7976931348623157e+308, 0.0, 0.0, 0.0, 1.7976931348623157e+308, 0.0, 0.0, 0.0, 0.05)",0.0,0.0,0.0,"(0.0, 0.0, 0.0, 0.0, 0.0, 0.0, 0.0, 0.0, 0.0)"
2019/10/07/19:21:26.811358,8077,1570443686,811005049,gyro_link,0.0,0.0,0.47524034471,0.879856019335,"(1.7976931348623157e+308, 0.0, 0.0, 0.0, 1.7976931348623157e+308, 0.0, 0.0, 0.0, 0.05)",0.0,0.0,0.0396189740203,"(1.7976931348623157e+308, 0.0, 0.0, 0.0, 1.7976931348623157e+308, 0.0, 0.0, 0.0, 0.05)",0.0,0.0,0.0,"(0.0, 0.0, 0.0, 0.0, 0.0, 0.0, 0.0, 0.0, 0.0)"
2019/10/07/19:21:26.869019,8078,1570443686,868712346,gyro_link,0.0,0.0,0.474165043386,0.880435978156,"(1.7976931348623157e+308, 0.0, 0.0, 0.0, 1.7976931348623157e+308, 0.0, 0.0, 0.0, 0.05)",0.0,0.0,-0.0755727566114,"(1.7976931348623157e+308, 0.0, 0.0, 0.0, 1.7976931348623157e+308, 0.0, 0.0, 0.0, 0.05)",0.0,0.0,0.0,"(0.0, 0.0, 0.0, 0.0, 0.0, 0.0, 0.0, 0.0, 0.0)"
2019/10/07/19:21:26.891817,8079,1570443686,891553562,gyro_link,0.0,0.0,0.473627127217,0.88072546481,"(1.7976931348623157e+308, 0.0, 0.0, 0.0, 1.7976931348623157e+308, 0.0, 0.0, 0.0, 0.05)",0.0,0.0,-0.0645771823238,"(1.7976931348623157e+308, 0.0, 0.0, 0.0, 1.7976931348623157e+308, 0.0, 0.0, 0.0, 0.05)",0.0,0.0,0.0,"(0.0, 0.0, 0.0, 0.0, 0.0, 0.0, 0.0, 0.0, 0.0)"
2019/10/07/19:21:26.951081,8080,1570443686,950510474,gyro_link,0.0,0.0,0.473550267618,0.88076679322,"(1.7976931348623157e+308, 0.0, 0.0, 0.0, 1.7976931348623157e+308, 0.0, 0.0, 0.0, 0.05)",0.0,0.0,0.0581194640914,"(1.7976931348623157e+308, 0.0, 0.0, 0.0, 1.7976931348623157e+308, 0.0, 0.0, 0.0, 0.05)",0.0,0.0,0.0,"(0.0, 0.0, 0.0, 0.0, 0.0, 0.0, 0.0, 0.0, 0.0)"
2019/10/07/19:21:27.008721,8081,1570443687,8409618,gyro_link,0.0,0.0,0.475163560978,0.879897488528,"(1.7976931348623157e+308, 0.0, 0.0, 0.0, 1.7976931348623157e+308, 0.0, 0.0, 0.0, 0.05)",0.0,0.0,0.0144862327916,"(1.7976931348623157e+308, 0.0, 0.0, 0.0, 1.7976931348623157e+308, 0.0, 0.0, 0.0, 0.05)",0.0,0.0,0.0,"(0.0, 0.0, 0.0, 0.0, 0.0, 0.0, 0.0, 0.0, 0.0)"
2019/10/07/19:21:27.031698,8082,1570443687,31411995,gyro_link,0.0,0.0,0.474933188073,0.880021855903,"(1.7976931348623157e+308, 0.0, 0.0, 0.0, 1.7976931348623157e+308, 0.0, 0.0, 0.0, 0.05)",0.0,0.0,-0.0375245789179,"(1.7976931348623157e+308, 0.0, 0.0, 0.0, 1.7976931348623157e+308, 0.0, 0.0, 0.0, 0.05)",0.0,0.0,0.0,"(0.0, 0.0, 0.0, 0.0, 0.0, 0.0, 0.0, 0.0, 0.0)"
2019/10/07/19:21:27.090700,8083,1570443687,90504022,gyro_link,0.0,0.0,0.473089034311,0.881014622815,"(1.7976931348623157e+308, 0.0, 0.0, 0.0, 1.7976931348623157e+308, 0.0, 0.0, 0.0, 0.05)",0.0,0.0,-0.0692895713042,"(1.7976931348623157e+308, 0.0, 0.0, 0.0, 1.7976931348623157e+308, 0.0, 0.0, 0.0, 0.05)",0.0,0.0,0.0,"(0.0, 0.0, 0.0, 0.0, 0.0, 0.0, 0.0, 0.0, 0.0)"
2019/10/07/19:21:27.148485,8084,1570443687,148074641,gyro_link,0.0,0.0,0.473550267618,0.88076679322,"(1.7976931348623157e+308, 0.0, 0.0, 0.0, 1.7976931348623157e+308, 0.0, 0.0, 0.0, 0.05)",0.0,0.0,0.0790634151153,"(1.7976931348623157e+308, 0.0, 0.0, 0.0, 1.7976931348623157e+308, 0.0, 0.0, 0.0, 0.05)",0.0,0.0,0.0,"(0.0, 0.0, 0.0, 0.0, 0.0, 0.0, 0.0, 0.0, 0.0)"
2019/10/07/19:21:27.170550,8085,1570443687,170174233,gyro_link,0.0,0.0,0.474165043386,0.880435978156,"(1.7976931348623157e+308, 0.0, 0.0, 0.0, 1.7976931348623157e+308, 0.0, 0.0, 0.0, 0.05)",0.0,0.0,0.0731292956586,"(1.7976931348623157e+308, 0.0, 0.0, 0.0, 1.7976931348623157e+308, 0.0, 0.0, 0.0, 0.05)",0.0,0.0,0.0,"(0.0, 0.0, 0.0, 0.0, 0.0, 0.0, 0.0, 0.0, 0.0)"
2019/10/07/19:21:27.230492,8086,1570443687,230021496,gyro_link,0.0,0.0,0.474856389871,0.880063298291,"(1.7976931348623157e+308, 0.0, 0.0, 0.0, 1.7976931348623157e+308, 0.0, 0.0, 0.0, 0.05)",0.0,0.0,-0.0424115008235,"(1.7976931348623157e+308, 0.0, 0.0, 0.0, 1.7976931348623157e+308, 0.0, 0.0, 0.0, 0.05)",0.0,0.0,0.0,"(0.0, 0.0, 0.0, 0.0, 0.0, 0.0, 0.0, 0.0, 0.0)"
2019/10/07/19:21:27.288529,8087,1570443687,287935381,gyro_link,0.0,0.0,0.472473854835,0.881344686543,"(1.7976931348623157e+308, 0.0, 0.0, 0.0, 1.7976931348623157e+308, 0.0, 0.0, 0.0, 0.05)",0.0,0.0,-0.0898844564777,"(1.7976931348623157e+308, 0.0, 0.0, 0.0, 1.7976931348623157e+308, 0.0, 0.0, 0.0, 0.05)",0.0,0.0,0.0,"(0.0, 0.0, 0.0, 0.0, 0.0, 0.0, 0.0, 0.0, 0.0)"
2019/10/07/19:21:27.310508,8088,1570443687,309847474,gyro_link,0.0,0.0,0.472089250705,0.881550758248,"(1.7976931348623157e+308, 0.0, 0.0, 0.0, 1.7976931348623157e+308, 0.0, 0.0, 0.0, 0.05)",0.0,0.0,-0.0305432619099,"(1.7976931348623157e+308, 0.0, 0.0, 0.0, 1.7976931348623157e+308, 0.0, 0.0, 0.0, 0.05)",0.0,0.0,0.0,"(0.0, 0.0, 0.0, 0.0, 0.0, 0.0, 0.0, 0.0, 0.0)"
2019/10/07/19:21:27.368088,8089,1570443687,367514664,gyro_link,0.0,0.0,0.473473404412,0.880808114923,"(1.7976931348623157e+308, 0.0, 0.0, 0.0, 1.7976931348623157e+308, 0.0, 0.0, 0.0, 0.05)",0.0,0.0,0.0591666616426,"(1.7976931348623157e+308, 0.0, 0.0, 0.0, 1.7976931348623157e+308, 0.0, 0.0, 0.0, 0.05)",0.0,0.0,0.0,"(0.0, 0.0, 0.0, 0.0, 0.0, 0.0, 0.0, 0.0, 0.0)"
2019/10/07/19:21:27.390080,8090,1570443687,389815176,gyro_link,0.0,0.0,0.473857684371,0.880601439337,"(1.7976931348623157e+308, 0.0, 0.0, 0.0, 1.7976931348623157e+308, 0.0, 0.0, 0.0, 0.05)",0.0,0.0,0.0390953752447,"(1.7976931348623157e+308, 0.0, 0.0, 0.0, 1.7976931348623157e+308, 0.0, 0.0, 0.0, 0.05)",0.0,0.0,0.0,"(0.0, 0.0, 0.0, 0.0, 0.0, 0.0, 0.0, 0.0, 0.0)"
2019/10/07/19:21:27.450124,8091,1570443687,449691395,gyro_link,0.0,0.0,0.472781473377,0.881179708364,"(1.7976931348623157e+308, 0.0, 0.0, 0.0, 1.7976931348623157e+308, 0.0, 0.0, 0.0, 0.05)",0.0,0.0,-0.0753982236862,"(1.7976931348623157e+308, 0.0, 0.0, 0.0, 1.7976931348623157e+308, 0.0, 0.0, 0.0, 0.05)",0.0,0.0,0.0,"(0.0, 0.0, 0.0, 0.0, 0.0, 0.0, 0.0, 0.0, 0.0)"
2019/10/07/19:21:27.509987,8092,1570443687,509584640,gyro_link,0.0,0.0,0.472320023973,0.881427135363,"(1.7976931348623157e+308, 0.0, 0.0, 0.0, 1.7976931348623157e+308, 0.0, 0.0, 0.0, 0.05)",0.0,0.0,0.0424115008235,"(1.7976931348623157e+308, 0.0, 0.0, 0.0, 1.7976931348623157e+308, 0.0, 0.0, 0.0, 0.05)",0.0,0.0,0.0,"(0.0, 0.0, 0.0, 0.0, 0.0, 0.0, 0.0, 0.0, 0.0)"
2019/10/07/19:21:27.570048,8093,1570443687,569594383,gyro_link,0.0,0.0,0.473703983209,0.880684129692,"(1.7976931348623157e+308, 0.0, 0.0, 0.0, 1.7976931348623157e+308, 0.0, 0.0, 0.0, 0.05)",0.0,0.0,0.0317649923863,"(1.7976931348623157e+308, 0.0, 0.0, 0.0, 1.7976931348623157e+308, 0.0, 0.0, 0.0, 0.05)",0.0,0.0,0.0,"(0.0, 0.0, 0.0, 0.0, 0.0, 0.0, 0.0, 0.0, 0.0)"
